timestamp_ms,acceleration_x_m_s2,acceleration_y_m_s2,acceleration_z_m_s2
950,0.0,0.0,0.0
983,0.0,0.0,0.0
1012,0.0,0.0,0.0
1042,0.0,0.0,0.0
1071,0.0,0.0,0.0
1105,-0.78,0.76,9.44
1139,-0.79,0.7,9.52
1172,-0.76,0.72,9.46
1204,-0.79,0.77,9.48
1240,-0.76,0.74,9.51
1271,-0.76,0.73,9.5
1304,-0.78,0.78,9.51
1337,-0.79,0.77,9.51
1372,-0.78,0.75,9.5
1403,-0.78,0.74,9.5
1436,-0.77,0.8,9.39
1470,-0.76,0.79,9.6
1503,-0.78,0.81,9.61
1534,-0.77,0.9,9.39
1565,-0.76,0.88,9.78
1600,-0.69,1.06,9.53
1632,-0.72,1.05,9.53
1662,-0.75,1.0,9.58
1694,-0.71,1.01,9.56
1728,-0.73,1.02,9.5
1760,-0.7,1.04,9.45
1792,-0.7,0.99,9.52
1827,-0.72,1.01,9.52
1857,-0.7,1.01,9.47
1890,-0.71,0.99,9.5
1922,-0.72,1.02,9.56
1956,-0.71,1.01,9.5
1989,-0.7,1.02,9.53
2022,-0.71,1.0,9.51
2054,-0.71,1.06,9.5
2089,-0.71,1.04,9.52
2122,-0.7,1.02,9.51
2154,-0.72,1.08,9.53
2187,-0.72,1.03,9.51
2223,-0.71,1.03,9.53
2254,-0.68,1.05,9.52
2287,-0.69,1.05,9.52
2322,-0.7,1.04,9.5
2355,-0.7,1.03,9.53
2387,-0.69,1.05,9.5
2418,-0.71,1.0,9.53
2453,-0.72,0.98,9.49
2486,-0.73,1.0,9.52
2515,-0.7,0.96,9.54
2548,-0.74,0.9,9.52
2583,-0.74,0.86,9.52
2614,-0.74,0.87,9.51
2647,-0.76,0.88,9.51
2681,-0.75,0.79,9.5
2712,-0.7,1.02,9.5
2745,-0.75,0.95,9.54
2778,-0.74,0.95,9.56
2810,-0.74,0.96,9.51
2843,-0.72,0.94,9.53
2876,-0.72,1.01,9.52
2907,-0.74,0.91,9.51
2942,-0.72,0.98,9.49
2973,-0.67,1.1,9.53
3005,-0.67,1.0,9.5
3041,-0.68,1.01,9.5
3072,-0.65,1.14,9.5
3104,-0.66,1.11,9.53
3136,-0.72,1.04,9.5
3170,-0.67,1.13,9.51
3203,-0.68,1.08,9.52
3235,-0.67,1.12,9.47
3268,-0.66,1.17,9.5
3303,-0.68,1.1,9.5
3336,-0.67,1.13,9.49
3365,-0.91,0.55,9.55
3401,-0.72,1.15,9.55
3434,-0.66,1.13,9.53
3465,-0.65,1.19,9.51
3497,-0.64,1.18,9.51
3532,-0.66,1.2,9.44
3564,-0.65,1.21,9.55
3597,-0.66,1.24,9.67
3630,-0.65,1.14,9.52
3663,-0.65,1.2,9.48
3696,-0.66,1.19,9.48
3729,-0.62,1.13,9.48
3762,-0.65,1.18,9.46
3795,-0.68,1.21,9.52
3827,-0.65,1.16,9.48
3859,-0.67,1.17,9.48
3894,-0.64,1.18,9.55
3927,-0.67,1.17,9.54
3957,-0.65,1.17,9.49
3990,-0.66,1.16,9.51
4026,-0.64,1.14,9.49
4057,-0.65,1.16,9.54
4089,-0.66,1.18,9.5
4124,-0.64,1.15,9.49
4157,-0.64,1.14,9.52
4189,-0.65,1.16,9.51
4221,-0.66,1.19,9.51
4257,-0.65,1.17,9.52
4290,-0.67,1.16,9.53
4322,-0.64,1.16,9.51
4355,-0.67,1.17,9.5
4390,-0.66,1.16,9.52
4423,-0.67,1.19,9.5
4455,-0.66,1.15,9.52
4488,-0.65,1.16,9.54
4524,-0.64,1.19,9.51
4556,-0.66,1.18,9.54
4589,-0.65,1.17,9.51
4624,-0.65,1.18,9.5
4657,-0.67,1.16,9.48
4689,-0.67,1.16,9.52
4721,-0.66,1.17,9.52
4757,-0.66,1.16,9.51
4790,-0.67,1.19,9.53
4823,-0.66,1.2,9.5
4855,-0.66,1.18,9.52
4890,-0.63,1.19,9.5
4923,-0.66,1.15,9.53
4956,-0.65,1.18,9.5
4990,-0.63,1.21,9.54
5023,-0.64,1.2,9.5
5056,-0.67,1.21,9.56
5089,-0.66,1.21,9.49
5124,-0.63,1.12,9.48
5156,-0.66,1.19,9.51
5188,-0.65,1.17,9.5
5221,-0.66,1.16,9.52
5257,-0.66,1.18,9.5
5289,-0.64,1.16,9.52
5322,-0.65,1.17,9.51
5354,-0.66,1.19,9.53
5390,-0.66,1.17,9.53
5423,-0.66,1.18,9.5
5454,-0.67,1.17,9.5
5490,-0.65,1.2,9.48
5523,-0.65,1.2,9.52
5555,-0.64,1.16,9.54
5587,-0.64,1.21,9.52
5623,-0.64,1.17,9.5
5656,-0.67,1.2,9.53
5689,-0.66,1.19,9.59
5722,-0.65,1.2,9.57
5756,-0.64,1.2,9.49
5789,-0.69,1.21,9.56
5822,-0.65,1.18,9.54
5857,-0.62,1.21,9.48
5890,-0.66,1.21,9.5
5922,-0.62,1.18,9.5
5955,-0.67,1.18,9.59
5991,-0.68,1.2,9.55
6023,-0.64,1.17,9.49
6055,-0.67,1.19,9.54
6088,-0.64,1.19,9.53
6123,-0.65,1.19,9.56
6156,-0.63,1.2,9.52
6189,-0.64,1.19,9.52
6221,-0.65,1.17,9.5
6252,-0.63,1.2,9.47
6285,-0.65,1.18,9.53
6316,-0.66,1.17,9.5
6351,-0.65,1.17,9.52
6383,-0.64,1.18,9.49
6415,-0.67,1.19,9.7
6448,-0.7,1.03,9.4
6483,-0.62,1.22,9.56
6513,-0.65,1.17,9.5
6546,-0.65,1.17,9.51
6579,-0.65,1.18,9.5
6612,-0.64,1.18,9.48
6645,-0.65,1.21,9.52
6677,-0.65,1.18,9.5
6712,-0.64,1.2,9.49
6745,-0.64,1.18,9.52
6776,-0.65,1.21,9.5
6809,-0.63,1.21,9.5
6845,-0.65,1.2,9.5
6877,-0.66,1.2,9.5
6909,-0.67,1.26,9.5
6942,-0.63,1.29,9.5
6975,-0.63,1.27,9.51
7008,-0.62,1.26,9.53
7041,-0.66,1.21,9.5
7072,-0.66,1.23,9.5
7108,-0.66,1.25,9.54
7141,-0.64,1.29,9.55
7173,-0.65,1.24,9.45
7208,-0.63,1.25,9.54
7241,-0.65,1.25,9.51
7272,-0.64,1.26,9.52
7304,-0.66,1.23,9.5
7340,-0.66,1.29,9.53
7372,-0.68,1.2,9.49
7404,-0.66,1.27,9.5
7437,-0.67,1.32,9.49
7471,-0.64,1.3,9.47
7502,-0.69,1.28,9.49
7535,-0.66,1.27,9.5
7569,-0.66,1.23,9.48
7601,-0.67,1.24,9.54
7633,-0.67,1.22,9.51
7663,-0.71,1.2,9.49
7699,-0.7,1.15,9.49
7731,-0.68,1.2,9.52
7761,-0.7,1.21,9.5
7794,-0.69,1.17,9.51
7829,-0.7,1.2,9.54
7861,-0.67,1.13,9.49
7894,-0.64,1.19,9.52
7928,-0.66,1.17,9.53
7960,-0.64,1.21,9.52
7993,-0.56,1.15,8.89
8026,-0.61,1.08,8.78
8061,-0.68,1.22,9.55
8094,-0.69,1.15,9.59
8127,-0.65,1.19,9.47
8159,-0.66,1.24,9.6
8195,-0.65,1.22,9.47
8227,-0.67,1.22,9.6
8259,-0.63,1.19,9.51
8292,-0.65,1.19,9.57
8328,-0.65,1.2,9.57
8360,-0.65,1.19,9.45
8393,-0.63,1.18,9.41
8428,-0.66,1.23,9.71
8461,-0.68,1.2,9.45
8494,-0.62,1.21,9.49
8525,-0.65,1.16,9.54
8561,-0.67,1.17,9.45
8594,-0.62,1.2,9.51
8627,-0.64,1.2,9.55
8659,-0.67,1.2,9.52
8704,-0.63,1.2,9.52
8738,-0.64,1.19,9.51
8772,-0.65,1.2,9.51
8810,-0.63,1.2,9.52
8846,-0.63,1.21,9.49
8880,-0.66,1.22,9.49
8913,-0.63,1.18,9.49
8951,-0.67,1.19,9.55
8986,-0.65,1.19,9.52
9020,-0.63,1.2,9.51
9055,-0.63,1.21,9.5
9093,-0.65,1.2,9.5
9127,-0.64,1.2,9.49
9162,-0.65,1.19,9.52
9199,-0.66,1.19,9.48
9235,-0.66,1.17,9.53
9268,-0.64,1.17,9.48
9304,-0.66,1.2,9.54
9340,-0.65,1.19,9.52
9376,-0.64,1.21,9.51
9411,-0.64,1.23,9.5
9446,-0.66,1.19,9.5
9483,-0.64,1.19,9.52
9517,-0.66,1.23,9.51
9551,-0.65,1.2,9.51
9586,-0.64,1.18,9.52
9623,-0.64,1.17,9.51
9658,-0.67,1.21,9.5
9693,-0.64,1.19,9.5
9731,-0.66,1.17,9.5
9764,-0.64,1.2,9.49
9799,-0.64,1.2,9.49
9834,-0.65,1.2,9.53
9870,-0.63,1.19,9.5
9905,-0.65,1.19,9.51
9939,-0.65,1.2,9.5
9973,-0.61,1.23,9.51
10011,-0.64,1.2,9.54
10046,-0.66,1.2,9.54
10081,-0.62,1.21,9.51
10118,-0.66,1.17,9.47
10152,-0.66,1.19,9.52
10187,-0.65,1.21,9.49
10221,-0.64,1.2,9.49
10259,-0.65,1.18,9.54
10294,-0.64,1.19,9.51
10329,-0.65,1.18,9.5
10363,-0.63,1.21,9.51
10401,-0.65,1.22,9.51
10436,-0.64,1.19,9.54
10470,-0.63,1.19,9.49
10508,-0.64,1.19,9.51
10543,-0.62,1.21,9.51
10577,-0.64,1.21,9.52
10612,-0.64,1.21,9.49
10650,-0.66,1.18,9.53
10686,-0.65,1.17,9.51
10719,-0.65,1.17,9.5
10755,-0.65,1.23,9.5
10791,-0.65,1.22,9.5
10827,-0.62,1.15,9.51
10862,-0.62,1.2,9.53
10900,-0.64,1.22,9.52
10935,-0.65,1.19,9.53
10968,-0.64,1.19,9.5
11002,-0.67,1.22,9.5
11040,-0.66,1.22,9.51
11075,-0.64,1.2,9.55
11110,-0.62,1.2,9.5
11145,-0.65,1.22,9.54
11183,-0.64,1.21,9.5
11215,-0.65,1.21,9.52
11250,-0.64,1.19,9.5
11288,-0.64,1.21,9.53
11322,-0.64,1.21,9.51
11358,-0.65,1.19,9.51
11392,-0.66,1.22,9.5
11429,-0.64,1.22,9.5
11464,-0.64,1.19,9.51
11499,-0.64,1.2,9.51
11535,-0.63,1.21,9.51
11571,-0.65,1.19,9.49
11606,-0.65,1.22,9.52
11640,-0.64,1.18,9.55
11677,-0.63,1.21,9.51
11712,-0.64,1.19,9.51
11747,-0.65,1.21,9.53
11782,-0.63,1.19,9.51
11819,-0.63,1.2,9.47
11853,-0.64,1.21,9.54
11887,-0.66,1.13,9.52
11921,-0.63,1.17,9.54
11959,-0.68,1.1,9.54
11993,-0.66,1.14,9.54
12028,-0.7,1.01,9.53
12065,-0.65,1.11,9.5
12100,-0.72,0.96,9.52
12133,-0.63,1.11,9.5
12167,-0.66,1.15,9.34
12204,-0.7,1.08,9.53
12238,-0.69,0.97,9.5
12271,-0.7,1.02,9.52
12306,-0.7,1.04,9.49
12343,-0.69,1.04,9.54
12379,-0.69,1.05,9.51
12413,-0.68,1.05,9.55
12451,-0.69,1.01,9.51
12486,-0.68,1.04,9.52
12519,-0.69,1.03,9.52
12554,-0.71,1.06,9.53
12592,-0.7,1.08,9.53
12625,-0.68,1.06,9.52
12661,-0.68,1.05,9.46
12696,-0.67,1.08,9.52
12733,-0.68,1.07,9.52
12767,-0.67,1.06,9.51
12802,-0.67,1.11,9.53
12834,-0.64,1.1,9.51
12871,-0.68,1.12,9.51
12906,-0.67,1.11,9.54
12941,-0.67,1.11,9.53
12978,-0.64,1.1,9.51
13012,-0.68,1.14,9.54
13048,-0.66,1.1,9.51
13083,-0.67,1.11,9.51
13120,-0.67,1.1,9.51
13155,-0.68,1.09,9.53
13190,-0.66,1.11,9.53
13223,-0.68,1.1,9.54
13260,-0.66,1.08,9.52
13296,-0.65,1.13,9.51
13331,-0.68,1.12,9.54
13369,-0.66,1.1,9.5
13404,-0.67,1.1,9.51
13438,-0.67,1.09,9.52
13471,-0.67,1.11,9.51
13509,-0.66,1.11,9.49
13544,-0.67,1.1,9.48
13580,-0.67,1.11,9.5
13614,-0.67,1.09,9.54
13651,-0.67,1.08,9.52
13687,-0.67,1.13,9.53
13720,-0.68,1.06,9.5
13758,-0.65,1.08,9.5
13793,-0.67,1.12,9.55
13827,-0.66,1.1,9.5
13861,-0.73,1.0,9.55
13899,-0.65,1.13,9.52
13934,-0.66,1.14,9.52
13968,-0.67,1.08,9.5
14003,-0.68,1.11,9.52
14039,-0.68,1.14,9.53
14072,-0.63,1.14,9.5
14107,-0.65,1.13,9.52
14145,-0.67,1.12,9.54
14180,-0.68,1.13,9.52
14215,-0.66,1.12,9.54
14249,-0.67,1.12,9.51
14285,-0.69,1.09,9.5
14319,-0.67,1.12,9.54
14354,-0.67,1.09,9.52
14389,-0.66,1.12,9.51
14426,-0.69,1.12,9.5
14460,-0.66,1.12,9.52
14495,-0.67,1.09,9.51
14533,-0.67,1.12,9.5
14568,-0.68,1.09,9.51
14603,-0.67,1.1,9.52
14638,-0.68,1.11,9.52
14673,-0.67,1.1,9.54
14708,-0.67,1.1,9.5
14743,-0.65,1.12,9.51
14777,-0.68,1.1,9.56
14815,-0.67,1.12,9.53
14850,-0.7,1.09,9.53
14884,-0.67,1.11,9.53
14921,-0.67,1.07,9.51
14956,-0.68,1.08,9.53
14991,-0.68,1.12,9.53
15025,-0.66,1.12,9.51
15063,-0.67,1.1,9.53
15097,-0.68,1.1,9.49
15132,-0.66,1.13,9.51
15167,-0.68,1.09,9.5
15205,-0.66,1.13,9.54
15240,-0.68,1.11,9.52
15273,-0.69,1.1,9.51
15311,-0.62,1.12,9.5
15346,-0.66,1.14,9.53
15381,-0.69,1.11,9.51
15416,-0.67,1.09,9.54
15454,-0.65,1.15,9.54
15490,-0.64,1.11,9.48
15523,-0.61,1.08,9.5
15558,-0.69,1.11,9.53
15596,-0.67,1.15,9.5
15631,-0.67,1.09,9.55
15666,-0.67,1.13,9.52
15704,-0.63,1.14,9.52
15738,-0.66,1.14,9.53
15772,-0.67,1.13,9.51
15807,-0.67,1.13,9.53
15844,-0.62,1.14,9.52
15879,-0.64,1.17,9.5
15913,-0.63,1.18,9.52
15948,-0.64,1.16,9.55
15986,-0.67,1.14,9.57
16020,-0.65,1.15,9.54
16055,-0.73,1.03,9.89
16090,-0.61,1.0,9.41
16122,-0.53,1.32,9.52
16158,-0.66,1.21,10.55
16193,0.27,0.06,12.57
16229,-0.24,2.74,16.77
16264,1.28,-0.48,12.4
16299,2.9,1.14,1.24
16331,3.45,1.36,9.25
16369,4.1,1.39,10.86
16405,4.75,0.98,8.48
16438,4.42,2.13,7.05
16474,7.7,0.96,6.13
16509,6.68,1.38,4.41
16544,7.86,1.99,3.96
16577,7.85,0.97,1.02
16615,8.93,1.07,-2.56
16651,9.13,-0.18,0.89
16684,10.21,1.15,-1.13
16721,9.49,0.74,0.65
16756,9.55,0.8,0.33
16789,9.41,0.41,0.33
16822,9.46,0.43,-0.83
16860,9.63,0.28,-0.67
16894,9.55,0.17,-0.7
16927,9.5,0.3,-0.03
16974,9.33,0.0,0.78
17009,9.51,0.47,0.49
17044,9.7,0.82,0.36
17077,9.63,0.72,0.21
17116,9.52,0.33,0.0
17150,9.58,0.59,0.13
17183,9.49,0.36,0.31
17218,9.53,0.31,0.16
17257,9.44,0.22,0.53
17291,9.48,0.65,1.0
17324,9.6,0.49,-0.16
17361,9.59,0.61,0.02
17396,9.52,0.53,0.22
17431,9.6,0.57,0.22
17466,9.53,0.54,0.4
17503,9.46,0.38,0.25
17537,9.59,0.48,-0.09
17570,9.52,0.47,0.29
17608,9.54,0.58,0.44
17643,9.53,0.57,0.19
17676,9.56,0.63,0.42
17711,9.52,0.53,0.32
17747,9.53,0.57,0.35
17783,9.53,0.64,0.55
17818,9.57,0.74,0.1
17853,9.42,0.28,0.37
17889,9.53,0.56,0.3
17923,9.48,0.63,0.47
17956,9.58,0.77,0.3
17992,9.6,0.78,0.18
18025,9.54,0.67,0.31
18061,9.54,0.71,0.45
18095,9.49,0.65,0.55
18129,9.52,0.69,0.38
18164,9.57,0.81,0.3
18199,9.5,0.69,0.47
18231,9.55,0.74,0.27
18269,9.49,0.81,0.55
18305,9.54,0.84,0.42
18337,9.53,0.84,0.38
18374,9.51,0.75,0.26
18409,9.56,0.94,0.28
18442,9.47,0.81,0.71
18476,9.54,0.83,0.23
18513,9.57,0.86,0.47
18548,9.55,0.83,0.37
18583,9.57,0.77,0.3
18619,9.55,0.96,0.51
18657,9.51,0.78,0.57
18690,9.53,0.8,0.49
18723,9.53,0.89,0.48
18760,9.49,0.82,0.63
18795,9.52,0.77,0.52
18829,9.55,0.91,0.35
18864,9.52,0.82,0.46
18902,9.54,0.89,0.48
18936,9.51,0.84,0.4
18971,9.55,0.93,0.44
19008,9.5,0.78,0.49
19042,9.5,0.82,0.41
19075,9.54,0.86,0.56
19108,9.54,0.98,0.44
19145,9.56,0.96,0.38
19179,9.52,0.92,0.54
19214,9.51,0.82,0.54
19249,9.56,0.95,0.24
19284,9.53,0.87,0.39
19319,9.52,0.86,0.56
19354,9.54,0.85,0.4
19390,9.55,0.91,0.43
19424,9.53,0.86,0.28
19459,9.51,0.82,0.46
19494,9.53,0.89,0.36
19530,9.52,0.85,0.41
19565,9.55,0.96,0.34
19600,9.54,0.93,0.47
19635,9.52,0.88,0.31
19673,9.54,0.9,0.3
19707,9.55,0.95,0.45
19742,9.5,0.93,0.49
19778,9.54,0.93,0.36
19813,9.52,0.85,0.38
19848,9.53,0.93,0.37
19881,9.59,1.03,0.34
19918,9.52,0.93,0.47
19953,9.55,0.9,0.36
19988,9.54,0.94,0.38
20025,9.52,0.9,0.46
20060,9.52,0.95,0.41
20096,9.54,0.9,0.34
20128,9.54,0.91,0.27
20166,9.48,0.88,0.58
20200,9.5,0.96,0.68
20233,9.54,0.91,0.26
20269,9.52,0.96,0.45
20305,9.52,0.94,0.51
20340,9.52,0.95,0.5
20374,9.56,0.87,0.13
20412,9.55,0.94,0.35
20446,9.51,0.94,0.52
20478,9.56,0.97,0.23
20513,9.53,1.07,0.5
20551,9.54,1.08,0.58
20584,9.53,1.03,0.53
20619,9.54,1.07,0.49
20656,9.58,1.0,0.32
20690,9.55,1.06,0.45
20724,9.5,1.02,0.51
20759,9.54,0.98,0.4
20918,9.48,0.92,0.63
20954,9.56,1.12,0.53
20987,9.54,1.03,0.26
21021,9.52,0.87,0.41
21059,9.52,1.01,0.55
21094,9.53,0.94,0.43
21127,9.54,0.97,0.3
21165,9.55,1.0,0.4
21199,9.55,1.02,0.56
21233,9.54,1.06,0.58
21268,9.52,0.92,0.35
21306,9.5,0.89,0.6
21339,9.46,0.74,0.48
21373,9.52,0.92,0.52
21407,9.52,0.99,0.5
21445,9.56,1.03,0.47
21478,9.56,1.01,0.41
21514,9.52,0.98,0.46
21551,9.53,1.02,0.56
21586,9.53,1.03,0.61
21621,9.54,1.07,0.54
21656,9.52,0.91,0.41
21694,9.53,0.98,0.52
21728,9.52,0.97,0.44
21763,9.49,0.92,0.59
21799,9.51,0.87,0.52
21832,9.55,0.93,0.3
21867,9.59,1.1,0.46
21902,9.53,0.96,0.56
21940,9.51,1.05,0.59
21974,9.5,1.04,0.6
22008,9.52,0.98,0.67
22044,9.52,1.09,0.46
22080,9.61,0.96,0.42
22114,9.49,1.01,0.61
22149,9.57,1.01,0.41
22185,9.54,1.03,0.56
22220,9.52,0.96,0.54
22255,9.51,0.88,0.41
22288,9.56,1.03,0.48
22325,9.55,0.91,0.26
22360,9.67,1.03,-0.09
22393,9.35,0.96,-1.41
22426,9.85,1.12,-1.8
22464,7.78,0.9,0.12
22499,8.11,2.08,1.72
22532,7.27,1.55,-1.07
22569,5.01,2.22,3.66
22605,2.28,0.88,6.83
22638,4.25,1.11,7.43
22673,3.67,0.9,8.4
22711,1.11,0.76,10.89
22746,-0.26,0.42,9.93
22778,3.01,-1.49,7.52
22816,7.35,-10.09,-24.09
22851,-0.66,0.98,9.5
22884,-0.78,0.67,9.44
22919,-0.76,0.74,9.55
22957,-0.71,0.7,9.53
22990,-0.73,0.67,9.57
23024,-0.67,0.72,9.5
23062,-0.59,0.84,9.6
23095,-0.54,0.8,9.5
23128,-0.66,0.75,9.53
23162,-0.67,0.72,9.51
23198,-0.69,0.68,9.52
23232,-0.64,0.8,9.56
23267,-0.66,0.64,9.48
23302,-0.71,0.82,9.59
23337,-0.54,1.06,9.48
23372,-0.81,0.55,9.54
23408,-0.73,0.72,9.5
23444,-0.7,0.85,9.55
23477,-0.71,0.8,9.52
23512,-0.73,0.72,9.52
23545,-0.68,0.89,9.51
23580,-0.72,0.76,9.5
23615,-0.77,0.9,9.54
23650,-0.34,1.44,9.58
23683,-0.5,1.29,9.48
23720,-0.57,1.21,9.55
23756,-0.53,1.19,9.51
23789,-0.59,1.13,9.51
23827,-0.59,1.15,9.55
23862,-0.57,1.17,9.51
23896,-0.6,1.18,9.5
23929,-0.57,1.19,9.54
23968,-0.57,1.14,9.52
24002,-0.55,1.16,9.54
24038,-0.6,1.15,9.53
24073,-0.57,1.14,9.53
24111,-0.59,1.14,9.51
24145,-0.6,1.16,9.54
24178,-0.57,1.14,9.53
24216,-0.6,1.15,9.5
24251,-0.58,1.18,9.49
24285,-0.59,1.15,9.49
24320,-0.6,1.11,9.56
24357,-0.57,1.14,9.51
24392,-0.57,1.15,9.5
24427,-0.59,1.14,9.47
24461,-0.59,1.15,9.58
24499,-0.56,1.12,9.49
24532,-0.57,1.15,9.54
24567,-0.59,1.16,9.56
24605,-0.61,1.09,9.53
24640,-0.59,1.16,9.51
24675,-0.56,1.15,9.52
24710,-0.57,1.14,9.54
24747,-0.61,1.13,9.5
24780,-0.58,1.16,9.55
24815,-0.56,1.15,9.51
24850,-0.56,1.13,9.53
24886,-0.58,1.15,9.53
24921,-0.57,1.14,9.5
24955,-0.57,1.15,9.56
24993,-0.62,1.14,9.53
25027,-0.6,1.16,9.48
25062,-0.57,1.15,9.53
25097,-0.6,1.14,9.52
25133,-0.6,1.15,9.51
25167,-0.58,1.14,9.52
25202,-0.58,1.13,9.53
25236,-0.53,1.22,9.69
25283,-0.56,1.23,9.55
25319,-0.64,1.02,9.63
25354,-0.45,1.13,9.52
25389,-0.66,1.19,9.53
25426,-0.61,1.03,9.52
25461,-0.58,1.1,9.59
25496,-0.59,1.21,9.5
25532,-0.53,1.16,9.55
25567,-0.59,1.14,9.54
25602,-0.61,1.17,9.51
25635,-0.58,1.14,9.53
25672,-0.58,1.11,9.53
25707,-0.56,1.15,9.51
25742,-0.59,1.13,9.55
25777,-0.58,1.15,9.5
25814,-0.59,1.16,9.55
25848,-0.59,1.12,9.56
25882,-0.55,1.15,9.5
25920,-0.6,1.13,9.54
25955,-0.59,1.15,9.52
25990,-0.58,1.15,9.5
26024,-0.58,1.15,9.52
26062,-0.57,1.13,9.56
26097,-0.58,1.16,9.66
26130,-0.59,1.16,9.48
26165,-0.56,1.13,9.51
26203,-0.58,1.12,9.49
26236,-0.57,1.14,9.43
26271,-0.58,1.16,9.56
26309,-0.56,1.16,9.5
26344,-0.58,1.13,9.46
26378,-0.59,1.14,9.48
26413,-0.57,1.15,9.52
26450,-0.56,1.13,9.52
26484,-0.6,1.18,9.5
26520,-0.56,1.14,9.52
26555,-0.58,1.15,9.54
26593,-0.59,1.14,9.51
26627,-0.59,1.15,9.52
26661,-0.56,1.13,9.53
26699,-0.59,1.15,9.53
26733,-0.59,1.16,9.49
26768,-0.58,1.14,9.52
26803,-0.56,1.13,9.52
26841,-0.57,1.16,9.53
26875,-0.57,1.16,9.52
26910,-0.58,1.13,9.55
26945,-0.57,1.16,9.52
26982,-0.58,1.17,9.51
27017,-0.56,1.16,9.51
27052,-0.57,1.17,9.51
27088,-0.6,1.15,9.51
27123,-0.58,1.15,9.52
27158,-0.55,1.17,9.53
27193,-0.57,1.16,9.5
27230,-0.6,1.16,9.5
27265,-0.58,1.15,9.5
27300,-0.58,1.17,9.54
27334,-0.57,1.16,9.49
27372,-0.58,1.13,9.54
27407,-0.57,1.14,9.54
27442,-0.59,1.14,9.51
27480,-0.57,1.16,9.53
27514,-0.56,1.15,9.53
27549,-0.58,1.15,9.54
27583,-0.59,1.16,9.5
27621,-0.59,1.14,9.52
27656,-0.59,1.15,9.54
27692,-0.58,1.17,9.52
27726,-0.58,1.17,9.52
27763,-0.56,1.15,9.53
27798,-0.56,1.14,9.51
27832,-0.59,1.12,9.52
27870,-0.57,1.16,9.51
27905,-0.57,1.16,9.52
27940,-0.58,1.14,9.53
27975,-0.58,1.14,9.5
28013,-0.49,1.16,9.39
28048,-0.58,1.16,9.57
28081,-0.55,1.16,9.41
28115,-0.7,1.11,9.58
28153,-0.57,1.2,9.5
28188,-0.56,1.13,9.63
28223,-0.55,1.16,9.48
28261,-0.59,1.2,9.55
28296,-0.6,1.15,9.58
28329,-0.56,1.17,9.55
28364,-0.56,1.16,9.48
28403,-0.58,1.17,9.55
28437,-0.58,1.15,9.51
28472,-0.59,1.17,9.54
28508,-0.57,1.17,9.52
28546,-0.56,1.17,9.54
28579,-0.58,1.16,9.5
28614,-0.62,1.15,9.54
28652,-0.59,1.16,9.54
28686,-0.59,1.17,9.53
28721,-0.56,1.17,9.53
28755,-0.58,1.17,9.52
28793,-0.57,1.16,9.52
28828,-0.57,1.17,9.51
28863,-0.58,1.16,9.52
28898,-0.55,1.16,9.5
28934,-0.59,1.18,9.56
28969,-0.56,1.15,9.45
29004,-0.59,1.15,9.52
29041,-0.54,1.19,9.52
29077,-0.56,1.13,9.55
29112,-0.58,1.16,9.51
29147,-0.59,1.15,9.5
29184,-0.57,1.16,9.52
29218,-0.63,1.14,9.55
29253,-0.56,1.17,9.52
29288,-0.58,1.13,9.52
29326,-0.59,1.17,9.51
29361,-0.57,1.16,9.51
29395,-0.58,1.17,9.59
29432,-0.58,1.17,9.48
29468,-0.57,1.13,9.55
29503,-0.59,1.17,9.53
29537,-0.57,1.18,9.48
29575,-0.57,1.16,9.52
29611,-0.58,1.15,9.52
29645,-0.58,1.2,9.5
29679,-0.58,1.14,9.5
29717,-0.57,1.16,9.53
29752,-0.58,1.15,9.53
29786,-0.57,1.16,9.47
29824,-0.59,1.17,9.53
29858,-0.57,1.18,9.5
29893,-0.58,1.16,9.53
29928,-0.57,1.15,9.5
29966,-0.56,1.17,9.54
30002,-0.56,1.17,9.52
30035,-0.57,1.15,9.5
30070,-0.58,1.16,9.51
30108,-0.57,1.16,9.56
30143,-0.56,1.14,9.53
30178,-0.58,1.15,9.49
30216,-0.57,1.15,9.56
30251,-0.58,1.13,9.51
30284,-0.56,1.19,9.5
30320,-0.6,1.13,9.54
30358,-0.59,1.15,9.49
30393,-0.56,1.17,9.49
30428,-0.58,1.16,9.5
30462,-0.59,1.17,9.48
30500,-0.56,1.14,9.46
30534,-0.56,1.18,9.53
30569,-0.58,1.18,9.5
30607,-0.55,1.16,9.54
30642,-0.59,1.19,9.46
30678,-0.6,1.16,9.53
30712,-0.59,1.15,9.57
30750,-0.56,1.17,9.51
30783,-0.58,1.15,9.53
30819,-0.57,1.16,9.57
30853,-0.82,0.4,9.58
30888,-0.61,1.16,9.56
30923,-0.77,0.66,9.52
30959,-0.74,0.71,9.6
30994,-0.55,1.19,9.53
31029,-0.58,1.15,9.51
31064,-0.61,1.11,9.61
31097,-0.66,0.94,9.47
31134,-0.56,1.3,9.54
31169,-0.76,0.56,9.61
31204,-0.89,0.19,9.47
31237,-0.69,0.97,9.53
31276,-0.18,1.95,9.2
31310,-0.76,0.22,9.57
31344,-0.39,1.24,9.62
31381,-0.28,1.08,9.5
31416,-1.71,0.28,9.61
31451,-0.46,1.29,9.48
31483,-0.62,0.92,9.55
31522,-0.56,1.15,9.52
31557,-0.6,1.07,9.54
31590,-0.36,1.45,9.39
31625,-0.42,1.9,9.13
31663,-1.33,1.38,11.83
31696,-1.25,2.33,9.11
31730,-4.43,0.44,8.93
31768,-7.87,0.49,8.31
31803,-7.16,2.86,8.19
31836,-6.34,1.14,4.41
31872,-6.77,1.84,5.31
31909,-7.08,2.89,2.29
31942,-8.27,2.75,7.52
31977,-11.09,5.37,2.34
32015,-4.17,0.22,3.76
32049,-4.68,2.14,-8.55
32082,-10.55,-6.85,2.26
32117,-9.5,2.02,0.52
32154,-9.91,1.85,0.04
32187,-9.76,0.43,0.52
32223,-9.69,0.37,0.45
32261,-9.63,0.35,0.44
32293,-9.71,0.3,0.15
32328,-9.74,0.33,0.33
32363,-9.7,0.3,0.31
32399,-9.77,0.34,0.3
32433,-9.69,0.28,0.27
32467,-9.72,0.32,0.38
32500,-9.67,0.34,0.39
32536,-9.73,0.3,0.33
32571,-9.7,0.3,0.38
32605,-9.64,0.25,0.35
32641,-9.6,0.31,0.28
32675,-9.68,0.28,0.31
32710,-9.73,0.28,0.42
32743,-9.68,0.23,0.3
32781,-9.69,0.24,0.28
32816,-9.74,0.23,0.36
32848,-9.67,0.14,0.13
32885,-9.66,0.19,0.65
32920,-9.63,0.12,0.41
32955,-9.73,0.14,0.48
32988,-9.66,0.09,0.26
33026,-9.71,0.14,0.28
33060,-9.72,0.21,0.25
33093,-9.72,0.23,0.22
33128,-9.69,0.17,0.21
33166,-9.7,0.14,0.26
33199,-9.72,0.22,0.26
33232,-9.73,0.2,0.2
33270,-9.67,0.14,0.21
33304,-9.69,0.18,0.16
33337,-9.73,0.22,0.21
33372,-9.73,0.19,0.13
33409,-9.65,0.18,0.1
33442,-9.64,0.15,0.1
33477,-9.7,0.17,0.11
33511,-9.74,0.21,0.1
33558,-9.69,0.14,0.07
33591,-9.68,0.15,0.13
33626,-9.73,0.14,0.16
33664,-9.69,0.14,0.11
33698,-9.71,0.14,0.17
33732,-9.68,0.11,0.07
33767,-9.75,0.19,0.11
33804,-9.71,0.12,0.13
33837,-9.67,0.12,0.08
33871,-9.72,0.1,0.13
33909,-9.7,0.16,0.12
33944,-9.73,0.17,0.1
33979,-9.71,0.13,0.13
34014,-9.72,0.13,0.13
34050,-9.68,0.14,0.18
34083,-9.62,0.12,0.1
34118,-9.71,0.11,0.11
34153,-9.69,0.08,0.19
34189,-9.72,0.11,0.11
34225,-9.67,0.08,0.04
34259,-9.68,0.14,0.11
34295,-9.72,0.16,0.12
34330,-9.73,0.14,0.07
34365,-9.7,0.15,0.1
34401,-9.68,0.18,0.09
34437,-9.67,0.11,0.05
34471,-9.79,0.17,0.06
34506,-9.71,0.12,0.14
34542,-10.04,0.11,0.23
34577,-9.53,0.01,0.06
34612,-9.73,0.06,0.02
34644,-9.68,0.0,-0.13
34682,-9.61,0.0,-0.01
34717,-9.76,0.0,0.01
34750,-9.74,0.06,0.02
34783,-9.74,0.15,0.08
34821,-9.75,0.12,0.03
34855,-9.7,0.14,0.0
34888,-9.7,0.22,0.0
34927,-9.73,0.19,0.01
34962,-9.73,0.22,0.0
34997,-9.72,0.22,0.03
35032,-9.69,0.2,0.07
35068,-9.7,0.19,0.02
35103,-9.74,0.25,0.0
35137,-9.73,0.16,-0.01
35175,-9.69,0.11,0.09
35210,-9.71,0.22,0.04
35243,-9.72,0.17,0.02
35277,-9.69,0.12,0.0
35315,-9.69,0.16,0.05
35349,-9.71,0.21,0.08
35383,-9.69,0.19,0.04
35418,-9.72,0.22,0.05
35454,-9.7,0.23,0.04
35487,-9.68,0.23,0.0
35522,-9.7,0.2,0.04
35560,-9.72,0.2,-0.01
35593,-9.69,0.19,0.07
35628,-9.73,0.18,0.04
35663,-9.7,0.17,0.04
35700,-9.73,0.24,0.04
35733,-9.72,0.23,0.0
35769,-9.71,0.2,-0.02
35805,-9.71,0.22,0.01
35837,-9.69,0.21,0.0
35872,-9.72,0.22,-0.02
35907,-9.74,0.22,-0.04
35945,-9.7,0.22,-0.01
35980,-9.71,0.23,0.03
36015,-9.69,0.25,0.03
36050,-9.71,0.23,0.01
36086,-9.71,0.22,-0.02
36122,-9.7,0.19,0.0
36157,-9.71,0.25,0.02
36194,-9.7,0.21,0.01
36229,-9.77,0.24,0.0
36263,-9.69,0.28,0.02
36299,-9.73,0.25,-0.05
36336,-9.67,0.19,0.02
36372,-9.75,0.24,0.03
36407,-9.69,0.25,0.0
36444,-9.74,0.22,-0.01
36478,-9.7,0.23,0.01
36514,-9.71,0.26,0.0
36549,-9.68,0.24,0.0
36585,-9.7,0.25,-0.03
36621,-9.73,0.22,0.0
36655,-9.71,0.25,0.0
36691,-9.69,0.23,0.0
36726,-9.72,0.25,0.0
36762,-9.71,0.25,0.0
36797,-9.7,0.24,0.0
36834,-9.69,0.22,0.0
36870,-9.71,0.26,0.01
36904,-9.68,0.23,0.0
36938,-9.7,0.23,0.01
36976,-9.7,0.26,0.02
37012,-9.72,0.26,0.01
37047,-9.72,0.25,0.05
37085,-9.71,0.22,0.0
37120,-9.72,0.25,0.03
37154,-9.71,0.25,0.01
37188,-9.69,0.24,0.0
37226,-9.69,0.25,0.0
37261,-9.72,0.22,0.01
37296,-9.7,0.24,0.01
37334,-9.71,0.25,0.04
37368,-9.69,0.24,0.02
37404,-9.7,0.24,0.02
37438,-9.72,0.25,0.0
37476,-9.71,0.24,0.02
37511,-9.71,0.23,0.0
37545,-9.76,0.23,0.01
37580,-9.67,0.29,0.04
37614,-9.74,0.21,0.02
37649,-9.7,0.22,0.01
37683,-9.73,0.26,0.0
37720,-9.75,0.26,0.04
37755,-9.76,0.25,0.04
37789,-9.72,0.25,0.02
37825,-9.71,0.25,0.03
37863,-9.69,0.24,0.02
37898,-9.73,0.24,0.01
37933,-9.71,0.27,0.01
37969,-9.72,0.24,0.03
38005,-9.69,0.23,0.01
38039,-9.72,0.23,0.03
38074,-9.68,0.25,0.0
38112,-9.7,0.24,0.01
38147,-9.71,0.24,0.04
38181,-9.7,0.24,0.01
38216,-9.69,0.24,0.05
38255,-9.73,0.26,0.03
38288,-9.72,0.25,0.0
38324,-9.7,0.25,0.04
38361,-9.7,0.23,0.01
38396,-9.7,0.26,0.03
38431,-9.69,0.25,0.0
38466,-9.7,0.22,0.01
38504,-9.72,0.26,0.04
38538,-9.71,0.24,0.01
38574,-9.71,0.26,0.01
38610,-9.73,0.26,0.02
38646,-9.7,0.24,0.02
38681,-9.73,0.25,0.0
38717,-9.72,0.23,0.03
38755,-9.71,0.27,0.04
38789,-9.7,0.22,0.0
38823,-9.72,0.27,0.02
38858,-9.7,0.26,0.04
38896,-9.7,0.23,0.03
38931,-9.68,0.25,0.01
38967,-9.72,0.27,0.04
39005,-9.69,0.27,0.02
39038,-9.71,0.28,0.02
39073,-9.72,0.28,0.05
39109,-9.7,0.28,0.03
39146,-9.73,0.28,0.02
39182,-9.71,0.28,0.01
39217,-9.7,0.28,0.05
39252,-9.68,0.27,0.05
39288,-9.7,0.27,0.0
39323,-9.73,0.28,0.05
39358,-9.69,0.27,0.06
39395,-9.7,0.24,0.0
39431,-9.68,0.25,0.01
39465,-9.69,0.24,0.04
39500,-9.72,0.25,0.09
39537,-9.71,0.25,0.04
39573,-9.72,0.24,0.06
39608,-9.68,0.23,0.08
39645,-9.71,0.28,0.11
39680,-9.72,0.23,0.07
39715,-9.71,0.25,0.07
39750,-9.69,0.28,0.0
39787,-9.72,0.26,0.03
39822,-9.7,0.24,0.09
39857,-9.7,0.29,0.09
39890,-9.72,0.29,0.13
39928,-9.71,0.24,0.07
39963,-10.16,0.17,0.55
39996,-10.91,5.21,5.85
40034,-9.0,0.48,2.28
40070,-8.5,4.27,1.46
40103,-9.78,3.4,3.69
40136,-17.34,-5.34,19.6
40175,-1.32,13.58,-12.23
40210,-3.88,4.73,5.71
40243,-6.11,1.02,3.12
40281,-4.14,0.89,7.96
40315,-4.86,-0.08,11.55
40349,-5.45,-0.67,8.46
40383,-3.08,-0.62,8.72
40421,-2.27,-1.73,7.15
40457,-1.83,-2.26,7.87
40489,-0.77,1.41,8.37
40527,-1.28,1.21,9.38
40563,-3.46,9.37,16.77
40596,-0.53,1.21,9.66
40632,-0.51,0.7,9.59
40670,-0.46,0.04,9.4
40705,-0.45,0.69,9.45
40737,-0.49,0.66,9.48
40775,-0.35,0.8,9.5
40809,-0.78,0.94,9.79
40842,-0.57,0.57,9.52
40878,-0.68,0.34,9.3
40915,-0.64,0.64,9.51
40948,-0.53,0.82,9.61
40983,-0.58,0.71,9.51
41018,-0.55,0.79,9.6
41054,-0.55,0.79,9.5
41088,-0.58,0.76,9.6
41122,-0.56,0.79,9.51
41159,-0.61,0.93,9.61
41193,-0.58,0.81,9.48
41228,-0.58,0.86,9.49
41264,-0.57,0.84,9.52
41300,-0.59,0.81,9.51
41334,-0.58,0.8,9.52
41369,-0.55,0.81,9.55
41404,-0.57,0.81,9.58
41441,-0.59,0.84,9.51
41476,-0.58,0.8,9.54
41510,-0.73,1.24,9.8
41549,-0.53,0.81,9.49
41583,-0.49,0.9,9.54
41618,-0.42,0.98,9.54
41651,-0.5,0.85,9.53
41701,-0.5,0.84,9.54
41735,-0.45,0.8,9.52
41769,-0.52,0.8,9.54
41804,-0.45,0.81,9.51
41839,-0.49,0.84,9.55
41874,-0.47,0.82,9.56
41909,-0.46,0.81,9.52
41946,-0.52,0.79,9.49
41980,-0.47,0.81,9.55
42015,-0.5,0.82,9.47
42050,-0.49,0.79,9.51
42087,-0.48,0.79,9.59
42122,-0.5,0.82,9.51
42157,-0.49,0.78,9.59
42189,-0.49,0.79,9.51
42227,-0.5,0.8,9.56
42262,-0.48,0.77,9.56
42298,-0.48,0.77,9.53
42335,-0.47,0.81,9.53
42370,-0.5,0.79,9.56
42404,-0.46,0.78,9.54
42438,-0.48,0.79,9.53
42476,-0.48,0.77,9.54
42511,-0.52,0.78,9.54
42546,-0.5,0.78,9.5
42582,-0.48,0.78,9.53
42619,-0.5,0.76,9.51
42654,-0.52,0.78,9.55
42688,-0.47,0.79,9.54
42726,-0.48,0.77,9.52
42761,-0.47,0.78,9.52
42796,-0.47,0.77,9.52
42830,-0.49,0.8,9.55
42868,-0.5,0.75,9.57
42903,-0.5,0.78,9.58
42936,-0.46,0.77,9.52
42971,-0.49,0.76,9.57
43009,-0.48,0.77,9.41
43043,-0.49,0.79,9.47
43078,-0.46,0.76,9.49
43113,-0.48,0.78,9.57
43146,-0.49,0.78,9.53
43181,-0.48,0.77,9.53
43215,-0.46,0.74,9.49
43253,-0.49,0.77,9.54
43286,-0.46,0.78,9.5
43321,-0.49,0.76,9.54
43357,-0.46,0.8,9.52
43393,-0.49,0.75,9.58
43428,-0.49,0.78,9.53
43463,-0.5,0.77,9.52
43498,-0.49,0.76,9.52
43536,-0.49,0.78,9.57
43571,-0.48,0.79,9.53
43606,-0.49,0.75,9.52
43641,-0.49,0.75,9.51
43677,-0.49,0.77,9.55
43712,-0.49,0.75,9.51
43747,-0.48,0.79,9.52
43785,-0.58,0.7,10.29
43820,-0.47,0.77,9.63
43855,-0.47,0.79,9.62
43889,-0.48,0.76,9.44
43927,-0.51,0.77,9.56
43962,-0.47,0.76,9.56
43997,-0.51,0.77,9.64
44035,-0.49,0.74,9.49
44070,-0.49,0.78,9.6
44105,-0.48,0.77,9.55
44139,-0.47,0.78,9.54
44177,-0.49,0.76,9.53
44212,-0.46,0.77,9.55
44247,-0.48,0.75,9.52
44281,-0.47,0.76,9.55
44319,-0.45,0.78,9.51
44355,-0.53,0.77,9.55
44389,-0.48,0.75,9.52
44427,-0.47,0.78,9.55
44462,-0.49,0.77,9.55
44496,-0.48,0.72,9.54
44532,-0.47,0.77,9.54
44569,-0.49,0.79,9.56
44605,-0.46,0.76,9.55
44639,-0.49,0.76,9.52
44674,-0.48,0.75,9.56
44711,-0.5,0.75,9.57
44746,-0.47,0.76,9.54
44781,-0.48,0.77,9.56
44819,-0.47,0.77,9.54
44854,-0.49,0.74,9.54
44888,-0.47,0.76,9.5
44922,-0.49,0.74,9.57
44960,-0.47,0.73,9.54
44995,-0.47,0.74,9.52
45030,-0.5,0.75,9.54
45065,-0.47,0.75,9.54
45103,-0.48,0.75,9.54
45136,-0.47,0.77,9.52
45171,-0.48,0.76,9.51
45210,-0.49,0.78,9.53
45244,-0.48,0.77,9.53
45279,-0.49,0.78,9.57
45314,-0.47,0.8,9.55
45351,-0.5,0.75,9.53
45385,-0.48,0.75,9.52
45420,-0.48,0.75,9.55
45455,-0.48,0.77,9.53
45492,-0.47,0.74,9.5
45527,-0.47,0.76,9.54
45561,-0.47,0.75,9.53
45599,-0.47,0.75,9.52
45634,-0.46,0.77,9.52
45669,-0.5,0.77,9.55
45704,-0.46,0.76,9.54
45740,-0.47,0.76,9.56
45774,-0.48,0.77,9.51
45809,-0.49,0.74,9.57
45843,-0.49,0.78,9.54
45882,-0.46,0.76,9.51
45917,-0.47,0.73,9.53
45953,-0.48,0.74,9.55
45988,-0.45,0.75,9.5
46024,-0.5,0.8,9.59
46059,-0.46,0.74,9.53
46092,-0.49,0.71,9.49
46130,-0.48,0.77,9.52
46164,-0.2,-0.04,9.24
46197,2.71,-0.98,12.52
46233,-0.68,2.59,12.13
46271,-0.63,5.53,6.86
46305,-3.11,5.49,10.7
46338,0.18,8.43,5.56
46375,-1.43,6.34,4.5
46410,-0.1,8.14,3.92
46443,-0.8,8.8,3.58
46479,0.03,8.99,2.74
46517,0.38,10.4,2.25
46550,-1.24,9.7,2.08
46584,-0.21,8.92,0.03
46622,0.69,9.24,-0.11
46656,-0.63,10.09,0.69
46689,-0.16,9.78,0.6
46724,-0.12,10.16,0.59
46761,0.0,10.52,0.82
46794,-0.09,9.68,0.58
46829,-0.02,9.63,0.46
46865,-0.18,10.95,1.13
46900,-0.05,10.58,1.07
46935,0.11,9.84,0.47
46969,-0.11,10.39,0.8
47005,-0.03,10.16,0.7
47038,0.0,10.24,0.54
47073,-0.11,10.16,0.59
47108,0.0,10.39,0.74
47143,-0.03,10.03,0.6
47179,-0.07,10.33,0.67
47214,-0.04,10.37,0.67
47250,0.0,10.05,0.7
47285,-0.01,10.42,0.63
47319,-0.01,10.25,0.62
47351,-0.04,9.98,0.54
47388,-0.05,10.61,0.73
47423,0.02,10.26,0.58
47458,0.05,10.15,0.52
47494,0.02,10.29,0.54
47529,-0.02,9.98,0.7
47564,0.12,10.22,0.55
47597,-0.07,10.66,0.66
47635,-0.07,10.38,0.74
47670,0.05,9.98,0.58
47703,0.01,10.28,0.62
47739,-0.07,10.03,0.56
47774,-0.04,10.24,0.53
47808,-0.07,10.45,0.62
47841,-0.02,10.1,0.52
47879,-0.03,10.46,0.63
47915,0.0,10.34,0.58
47947,-0.02,10.17,0.53
47982,-0.07,10.26,0.55
48019,-0.05,10.25,0.56
48054,-0.06,10.33,0.67
48088,0.05,10.06,0.55
48124,0.0,10.32,0.52
48159,-0.04,10.36,0.6
48191,-0.08,10.18,0.53
48226,0.0,10.29,0.58
48262,0.1,10.21,0.58
48295,-0.03,10.18,0.54
48330,-0.07,10.29,0.59
48367,-0.04,10.55,0.66
48402,0.0,10.07,0.48
48436,-0.01,10.37,0.62
48471,0.01,10.43,0.68
48506,0.0,10.03,0.58
48539,-0.04,10.2,0.46
48574,-0.02,10.43,0.57
48612,-0.07,10.28,0.56
48645,-0.07,10.08,0.46
48679,-0.04,10.64,0.61
48715,-0.01,10.06,0.53
48750,-0.12,10.05,0.54
48785,0.0,10.54,0.62
48820,-0.02,10.12,0.54
48856,-0.09,10.16,0.49
48888,-0.03,10.34,0.49
48923,0.0,10.47,0.63
48958,-0.1,9.95,0.46
48994,-0.01,10.44,0.54
49030,0.0,10.48,0.6
49065,-0.09,10.05,0.47
49097,-0.02,10.21,0.56
49135,-0.02,10.4,0.64
49170,0.0,10.1,0.55
49205,-0.02,10.39,0.54
49241,-0.05,10.44,0.55
49275,-0.11,10.03,0.48
49310,-0.21,9.96,0.5
49343,0.0,10.66,0.64
49381,-0.09,9.76,0.43
49417,-0.07,10.22,0.54
49452,-0.01,10.42,0.57
49488,-0.09,10.13,0.46
49524,0.0,10.42,0.51
49559,-0.01,10.43,0.59
49592,-0.1,10.08,0.47
49630,-0.11,10.08,0.45
49665,-0.05,10.35,0.56
49699,-0.11,10.27,0.48
49737,-0.13,10.38,0.55
49772,0.03,10.12,0.58
49805,0.07,10.27,0.45
49838,-0.05,10.46,0.6
49885,-0.04,10.13,0.94
49920,-0.05,10.15,1.02
49953,0.16,10.29,1.15
49987,0.04,10.03,0.93
50024,0.06,10.3,1.12
50059,-0.03,10.56,1.62
50092,0.3,9.39,1.3
50129,-0.6,9.11,4.62
50165,0.31,9.02,5.05
50198,0.97,8.82,5.62
50233,1.01,7.49,5.98
50271,1.99,4.53,5.65
50305,1.84,4.26,8.81
50337,2.26,3.56,8.3
50375,0.91,2.65,8.46
50410,1.21,3.3,8.37
50443,0.9,2.31,10.11
50479,0.78,1.04,10.31
50515,-0.66,0.68,10.53
50548,-2.12,3.86,16.77
50584,-0.33,0.9,9.43
50622,-0.56,0.55,9.54
50656,-0.47,0.6,9.56
50689,-0.48,0.67,9.51
50723,-0.44,0.63,9.53
50761,-0.47,0.68,9.54
50794,-0.45,0.7,9.55
50829,-0.46,0.68,9.55
50866,-0.47,0.66,9.58
50900,-0.47,0.68,9.58
50935,-0.45,0.69,9.52
50970,-0.45,0.67,9.6
51008,-0.45,0.67,9.53
51042,-0.45,0.63,9.52
51077,-0.46,0.67,9.56
51111,-0.45,0.66,9.55
51146,-0.45,0.65,9.55
51181,-0.46,0.67,9.56
51216,-0.45,0.67,9.56
51254,-0.44,0.66,9.52
51288,-0.42,0.66,9.52
51322,-0.44,0.67,9.53
51356,-0.46,0.65,9.59
51392,-0.44,0.63,9.54
51426,-0.45,0.67,9.59
51461,-0.43,0.64,9.54
51496,-0.45,0.62,9.55
51531,-0.46,0.66,9.58
51566,-0.47,0.64,9.55
51601,-0.45,0.62,9.53
51639,-0.42,0.61,9.54
51674,-0.43,0.66,9.55
51708,-0.45,0.64,9.56
51742,-0.44,0.64,9.48
51779,-0.47,0.63,9.55
51814,-0.46,0.64,9.56
51849,-0.46,0.63,9.55
51887,-0.44,0.62,9.51
51921,-0.44,0.63,9.55
51956,-0.46,0.62,9.54
51989,-0.45,0.63,9.53
52026,-0.46,0.62,9.53
52061,-0.44,0.64,9.54
52094,-0.43,0.64,9.52
52131,-0.45,0.63,9.55
52166,-0.46,0.63,9.54
52202,-0.47,0.64,9.54
52236,-0.46,0.64,9.55
52274,-0.43,0.64,9.54
52308,-0.43,0.66,9.54
52342,-0.44,0.66,9.53
52377,-0.45,0.61,9.55
52415,-0.47,0.61,9.55
52450,-0.44,0.6,9.57
52485,-0.5,0.62,9.55
52523,-0.45,0.67,9.57
52557,-0.43,0.62,9.55
52591,-0.44,0.6,9.56
52626,-0.46,0.64,9.58
52664,-0.44,0.63,9.54
52699,-0.46,0.59,9.54
52733,-0.45,0.64,9.58
52771,-0.43,0.61,9.51
52807,-0.42,0.64,9.53
52840,-0.5,0.62,9.58
52876,-0.43,0.63,9.57
52913,-0.42,0.62,9.52
52947,-0.48,0.62,9.54
52982,-0.45,0.61,9.56
53017,-0.43,0.62,9.57
53055,-0.46,0.61,9.56
53089,-0.47,0.64,9.55
53123,-0.46,0.62,9.54
53161,-0.45,0.63,9.56
53194,-0.43,0.63,9.53
53229,-0.47,0.6,9.55
53264,-0.44,0.62,9.55
53302,-0.44,0.63,9.55
53337,-0.45,0.62,9.53
53371,-0.43,0.62,9.57
53409,-0.45,0.62,9.55
53442,-0.46,0.61,9.52
53477,-0.42,0.6,9.54
53512,-0.43,0.59,9.52
53549,-0.43,0.6,9.42
53583,-0.46,0.58,9.51
53619,-0.44,0.59,9.5
53654,-0.48,0.62,9.6
53690,-0.43,0.63,9.53
53726,-0.45,0.61,9.53
53761,-0.42,0.62,9.53
53796,-0.44,0.65,9.59
53831,-0.46,0.63,9.53
53867,-0.46,0.6,9.58
53902,-0.44,0.61,9.54
53940,-0.45,0.64,9.57
53975,-0.45,0.61,9.55
54009,-0.47,0.6,9.56
54046,-0.45,0.64,9.56
54081,-0.44,0.64,9.53
54116,-0.45,0.62,9.55
54151,-0.45,0.62,9.54
54189,-0.42,0.61,9.55
54223,-0.49,0.65,9.59
54259,-0.46,0.64,9.55
54292,-0.47,0.65,9.56
54330,-0.45,0.63,9.54
54366,-0.45,0.64,9.57
54401,-0.46,0.64,9.54
54438,-0.45,0.62,9.53
54473,-0.44,0.63,9.56
54508,-0.45,0.61,9.53
54542,-0.45,0.64,9.52
54580,-0.45,0.64,9.54
54615,-0.45,0.65,9.56
54650,-0.44,0.64,9.53
54685,-0.48,0.63,9.55
54723,-0.43,0.6,9.57
54758,-0.45,0.63,9.57
54791,-0.44,0.63,9.56
54829,-0.44,0.63,9.56
54863,-0.44,0.63,9.58
54899,-0.45,0.59,9.57
54934,-0.45,0.62,9.58
54972,-0.54,1.44,11.24
55006,-0.68,0.61,11.65
55038,-1.28,-1.61,13.3
55076,-0.29,-2.91,9.75
55111,0.35,-3.25,5.94
55145,-1.35,-4.2,7.78
55180,1.08,-4.38,6.63
55218,0.89,-4.87,5.8
55250,-0.78,-6.03,4.92
55285,-0.67,-6.41,4.5
55324,0.45,-7.83,4.63
55358,-0.25,-7.82,3.3
55391,-0.09,-8.03,2.8
55427,0.0,-9.25,1.29
55463,-0.06,-11.23,3.61
55497,-0.29,-9.42,0.1
55532,0.49,-7.69,0.03
55570,0.08,-9.1,1.6
55603,-0.11,-8.99,-0.19
55638,-0.15,-8.97,0.48
55672,-0.13,-8.95,0.65
55708,-0.13,-8.93,0.48
55741,-0.12,-8.97,0.31
55776,-0.13,-8.96,0.35
55813,-0.14,-8.97,0.15
55845,-0.12,-8.98,0.27
55880,-0.14,-8.99,0.45
55915,-0.13,-8.94,0.5
55950,-0.14,-8.96,0.71
56108,-0.13,-9.0,0.47
56140,-0.16,-8.99,0.46
56178,-0.14,-8.96,0.67
56212,-0.13,-9.05,0.73
56245,-0.12,-8.96,0.54
56281,-0.14,-8.96,0.62
56317,-0.14,-8.95,0.67
56350,-0.12,-8.94,0.49
56385,-0.14,-9.0,0.39
56420,-0.15,-9.1,0.67
56456,-0.14,-8.97,0.68
56489,-0.14,-8.93,0.42
56523,-0.13,-8.91,0.41
56559,-0.14,-8.95,0.51
56592,-0.15,-9.02,0.4
56627,-0.15,-8.98,0.44
56662,-0.13,-8.98,0.55
56697,-0.14,-8.97,0.54
56731,-0.14,-8.96,0.5
56766,-0.14,-8.98,0.5
56801,-0.11,-8.96,0.61
56836,-0.12,-8.96,0.61
56870,-0.12,-9.01,0.56
56905,-0.15,-8.96,0.6
56942,-0.14,-8.98,0.61
56977,-0.14,-8.99,0.48
57011,-0.14,-8.97,0.58
57043,-0.13,-8.99,0.6
57080,-0.13,-8.98,0.56
57115,-0.14,-8.98,0.61
57150,-0.13,-9.01,0.52
57188,-0.14,-8.98,0.51
57223,-0.13,-8.99,0.56
57257,-0.12,-8.99,0.31
57290,-0.12,-8.99,0.43
57327,-0.14,-8.95,0.58
57362,-0.17,-8.98,0.64
57395,-0.13,-8.97,0.56
57433,-0.15,-8.98,0.55
57467,-0.14,-9.0,0.56
57500,-0.14,-8.97,0.61
57535,-0.12,-8.99,0.7
57573,-0.14,-8.99,0.52
57608,-0.14,-8.98,0.65
57640,-0.14,-8.97,0.69
57675,-0.13,-8.97,0.62
57713,-0.14,-8.99,0.65
57746,-0.14,-8.96,0.7
57781,-0.12,-9.01,0.6
57818,-0.14,-8.99,0.6
57850,-0.14,-8.95,0.65
57885,-0.13,-8.95,0.63
57920,-0.16,-9.01,0.46
57956,-0.14,-9.01,0.53
57990,-0.1,-9.03,0.58
58023,-0.15,-8.95,0.76
58067,-0.15,-8.99,0.55
58100,-0.14,-8.96,0.67
58135,-0.15,-8.96,0.78
58171,-0.16,-8.99,0.67
58208,-0.13,-8.97,0.68
58242,-0.14,-8.97,0.65
58276,-0.11,-8.97,0.62
58310,-0.14,-8.97,0.61
58346,-0.12,-9.01,0.65
58381,-0.13,-8.98,0.66
58416,-0.14,-8.99,0.67
58450,-0.12,-9.02,0.59
58485,-0.17,-9.01,0.62
58520,-0.13,-9.01,0.46
58553,-0.13,-9.01,0.46
58591,-0.12,-8.96,0.49
58626,-0.14,-9.0,0.45
58660,-0.15,-8.97,0.53
58696,-0.13,-8.92,0.48
58731,-0.11,-9.0,0.4
58766,-0.14,-8.97,0.41
58799,-0.12,-8.95,0.55
58836,-0.13,-9.03,0.55
58871,-0.14,-8.99,0.46
58904,-0.17,-8.95,0.59
58938,-0.13,-9.02,0.39
58976,-0.12,-9.02,0.25
59009,-0.13,-9.04,0.43
59041,-0.12,-8.99,0.92
59079,-0.13,-9.01,0.96
59114,-0.15,-9.01,1.01
59147,-0.13,-8.97,1.18
59182,-0.13,-9.0,1.0
59218,-0.12,-9.0,0.79
59252,-0.14,-9.04,0.69
59287,-0.12,-8.98,0.84
59324,-0.15,-8.96,0.96
59359,-0.13,-8.98,0.77
59390,-0.15,-8.97,0.88
59425,-0.13,-8.98,0.76
59461,-0.14,-9.01,0.64
59494,-0.13,-8.99,0.74
59529,-0.14,-8.99,0.66
59567,-0.14,-8.99,0.71
59601,-0.13,-8.97,0.74
59636,-0.14,-9.02,0.71
59671,-0.14,-9.0,0.72
59708,-0.14,-8.98,0.77
59742,-0.13,-8.99,0.65
59777,-0.14,-8.99,0.7
59811,-0.12,-8.95,0.78
59847,-0.13,-8.99,0.73
59881,-0.13,-8.98,0.74
59916,-0.13,-8.97,0.75
59954,-0.14,-9.02,0.49
59987,-0.14,-9.05,0.46
60022,-0.12,-9.05,0.46
60055,-0.15,-9.08,-0.08
60092,0.32,-12.07,2.26
60127,-0.45,-7.42,0.92
60163,0.0,-7.34,3.72
60197,-0.68,-5.23,5.97
60232,-0.03,-4.26,4.71
60268,1.19,-2.0,6.35
60301,2.51,-1.69,8.18
60339,-1.38,-3.42,10.79
60374,-0.77,-2.47,11.56
60406,-2.17,-0.3,10.32
60443,-0.65,-0.64,11.29
60479,-1.03,0.0,10.31
60514,0.81,0.22,8.32
60547,-0.67,1.23,11.29
60584,0.04,0.05,8.08
60619,-0.08,1.35,10.19
60652,-0.48,0.86,9.58
60687,-0.38,0.88,9.6
60725,-0.42,0.75,9.53
60761,-0.46,0.76,9.52
60794,-0.46,0.82,9.55
60831,-0.42,0.77,9.51
60866,-0.47,0.79,9.58
60900,-0.45,0.77,9.53
60935,-0.45,0.75,9.54
60972,-0.44,0.78,9.61
61006,-0.45,0.73,9.56
61040,-0.47,0.78,9.65
61077,-0.43,0.77,9.58
61112,-0.45,0.72,9.49
61146,-0.42,0.74,9.43
61180,-0.45,0.76,9.53
61217,-0.46,0.75,9.57
61252,-0.44,0.73,9.5
61287,-0.41,0.77,9.53
61322,-0.45,0.76,9.6
61360,-0.45,0.77,9.56
61392,-0.43,0.75,9.53
61427,-0.43,0.75,9.57
61465,-0.43,0.78,9.57
61498,-0.43,0.77,9.54
61533,-0.43,0.78,9.55
61569,-0.43,0.76,9.54
61605,-0.42,0.77,9.53
61639,-0.45,0.78,9.53
61674,-0.44,0.78,9.57
61709,-0.44,0.79,9.52
61745,-0.44,0.75,9.52
61779,-0.46,0.78,9.57
61813,-0.44,0.78,9.56
61849,-0.43,0.78,9.57
61884,-0.43,0.76,9.54
61919,-0.42,0.77,9.55
61954,-0.43,0.79,9.56
61991,-0.43,0.76,9.49
62026,-0.43,0.76,9.56
62061,-0.43,0.79,9.55
62098,-0.43,0.76,9.58
62132,-0.43,0.77,9.53
62167,-0.45,0.8,9.61
62201,-0.42,0.78,9.58
62239,-0.43,0.74,9.53
62274,-0.41,0.77,9.55
62309,-0.46,0.76,9.58
62342,-0.41,0.78,9.53
62380,-0.45,0.77,9.58
62414,-0.43,0.74,9.54
62447,-0.44,0.73,9.56
62485,-0.42,0.76,9.56
62519,-0.42,0.78,9.57
62554,-0.42,0.78,9.55
62588,-0.42,0.77,9.56
62626,-0.42,0.75,9.61
62661,-0.44,0.78,9.58
62695,-0.44,0.78,9.52
62729,-0.41,0.78,9.54
62767,-0.42,0.77,9.57
62801,-0.42,0.79,9.57
62837,-0.42,0.79,9.51
62874,-0.41,0.79,9.51
62909,-0.44,0.78,9.58
62943,-0.43,0.77,9.55
62978,-0.44,0.78,9.55
63015,-0.41,0.79,9.58
63050,-0.41,0.77,9.57
63085,-0.44,0.78,9.55
63121,-0.45,0.78,9.54
63158,-0.39,0.79,9.54
63192,-0.45,0.78,9.52
63226,-0.44,0.79,9.62
63264,-0.44,0.78,9.54
63299,-0.43,0.74,9.6
63334,-0.43,0.79,9.57
63369,-0.46,0.78,9.62
63407,-0.42,0.79,9.54
63440,-0.44,0.77,9.55
63475,-0.41,0.76,9.56
63513,-0.45,0.8,9.58
63547,-0.44,0.79,9.53
63583,-0.44,0.78,9.6
63618,-0.42,0.72,9.5
63655,-0.45,0.81,9.57
63689,-0.43,0.76,9.51
63724,-0.47,0.8,9.59
63759,-0.43,0.78,9.54
63795,-0.45,0.81,9.53
63831,-0.46,0.79,9.57
63865,-0.47,0.79,9.55
63902,-0.45,0.83,9.56
63937,-0.47,0.82,9.57
63972,-0.43,0.77,9.55
64007,-0.45,0.81,9.58
64044,-0.44,0.84,9.52
64078,-0.44,0.79,9.53
64113,-0.48,0.83,9.53
64150,-0.43,0.82,9.55
64185,-0.45,0.84,9.57
64220,-0.42,0.87,9.6
64256,-0.45,0.92,9.55
64292,-0.44,1.1,9.68
64327,-0.43,0.9,9.56
64362,-0.44,0.85,9.52
64395,-0.33,0.78,9.58
64433,-0.53,0.92,9.64
64467,-0.38,0.78,9.54
64502,-0.51,0.95,9.62
64540,-0.38,0.79,9.51
64575,-0.39,0.61,9.43
64608,-0.46,0.84,9.59
64642,-0.43,0.86,9.57
64678,-0.45,0.83,9.54
64713,-0.46,0.84,9.56
64747,-0.43,0.86,9.53
64782,-0.45,0.85,9.6
64820,-0.44,0.85,9.57
64854,-0.42,0.87,9.53
64888,-0.43,0.84,9.51
64925,-0.42,0.85,9.56
64960,-0.43,0.84,9.56
64994,-0.42,0.82,9.5
65029,-0.43,0.89,9.54
65067,-0.44,0.89,9.56
65100,-0.42,0.9,9.6
65135,-0.41,0.83,9.55
65173,-0.43,0.88,9.59
65207,0.38,2.2,9.87
65241,-0.31,2.73,14.64
65276,-0.15,0.22,14.71
65312,-0.37,0.18,14.25
65345,0.07,1.34,13.6
65380,-0.76,0.84,13.23
65416,-0.91,0.51,11.9
65451,-0.88,0.93,10.6
65486,-0.55,0.18,10.52
65521,-0.81,0.12,6.17
65557,-0.35,0.61,5.4
65591,0.04,0.88,4.38
65626,0.02,0.71,5.3
65659,0.53,1.16,6.59
65695,0.78,1.12,7.48
65731,0.5,0.69,8.61
65766,0.72,1.32,8.3
65801,0.95,1.31,8.63
65837,0.8,1.48,8.14
65871,0.97,1.52,9.38
65904,0.7,1.2,9.04
65942,0.76,1.17,8.75
65977,0.57,1.5,9.13
66010,0.81,1.25,9.12
66042,0.47,1.11,9.32
66080,0.81,1.12,10.25
66115,0.56,1.19,9.72
66148,0.37,1.02,10.11
66195,0.22,0.67,9.68
66230,0.0,0.86,9.07
66265,0.44,1.11,9.44
66297,0.3,1.02,8.31
66336,0.51,1.34,9.17
66371,0.49,1.27,8.99
66404,0.41,1.2,8.85
66442,0.42,1.01,9.55
66477,0.32,0.74,8.95
66510,0.11,0.45,9.24
66543,0.14,0.28,8.62
66581,0.03,0.89,8.61
66616,-0.04,0.68,9.43
66649,0.33,0.26,10.08
66683,-0.02,0.55,10.17
66721,0.17,0.17,10.99
66754,-0.18,-0.19,12.13
66789,-0.26,-0.28,11.28
66827,-0.06,-0.2,12.59
66862,-0.5,0.21,11.86
66894,-0.16,0.4,12.83
66929,-0.49,0.35,12.36
66967,-0.29,0.5,11.42
67000,-0.15,0.86,10.49
67036,0.03,0.64,9.58
67074,0.06,0.61,8.4
67106,0.55,0.5,8.34
67140,0.45,1.07,6.75
67176,0.58,1.21,5.45
67211,0.49,1.89,6.15
67245,0.71,1.38,7.32
67279,0.27,1.32,5.77
67316,0.11,1.69,7.92
67349,0.31,0.91,8.82
67385,0.0,0.45,8.43
67420,0.08,0.52,9.36
67456,-0.08,0.6,9.31
67490,0.21,1.21,10.15
67525,0.8,0.81,10.25
67561,-0.07,1.37,7.81
67594,0.57,1.43,9.0
67629,0.4,0.73,10.26
67663,0.06,1.37,7.89
67699,0.52,1.23,9.86
67734,0.34,1.31,10.76
67770,0.7,0.37,10.38
67803,0.65,0.05,10.67
67841,0.88,0.14,11.88
67875,0.43,-0.04,10.28
67908,0.29,-0.08,9.49
67945,0.39,0.22,10.05
67980,0.06,0.22,9.67
68015,0.03,0.46,9.51
68047,0.36,0.56,9.42
68086,0.15,0.36,9.63
68120,-0.07,0.15,10.05
68153,0.16,0.39,9.54
68191,0.2,0.36,9.78
68226,0.0,0.3,9.85
68258,0.16,0.31,9.65
68292,0.03,0.29,9.55
68329,-0.01,0.36,9.38
68363,0.1,0.44,9.65
68396,0.08,0.16,9.34
68433,-0.03,0.26,9.63
68467,0.13,0.33,9.54
68500,-0.12,0.38,9.18
68535,-0.04,0.26,9.61
68574,0.06,0.31,9.49
68606,-0.08,0.29,9.48
68640,0.0,0.27,9.52
68675,0.0,0.23,9.54
68711,-0.07,0.2,9.64
68744,-0.14,0.15,9.63
68779,0.0,0.22,9.64
68813,-0.09,0.16,9.46
68846,-0.12,0.22,9.56
68881,-0.23,0.21,9.45
68915,-0.08,0.2,9.58
68951,-0.14,0.27,9.27
68985,-0.23,0.03,9.65
69019,-0.19,0.14,9.74
69052,-0.23,0.21,9.45
69090,-0.01,0.31,9.42
69124,-0.01,0.19,9.52
69156,-0.32,-0.04,9.57
69193,-0.23,0.23,9.53
69228,-0.22,0.26,9.46
69261,-0.13,0.23,9.43
69294,-0.18,0.21,9.56
69330,-0.27,0.13,9.45
69365,-0.14,0.13,9.61
69399,-0.15,0.1,9.69
69436,-0.22,0.03,9.68
69471,-0.05,0.14,9.58
69504,-0.15,0.22,9.36
69538,-0.11,0.15,9.52
69576,-0.13,0.1,9.57
69611,-0.15,0.05,9.6
69644,-0.14,0.15,9.48
69680,-0.23,0.14,9.56
69716,-0.19,0.05,9.48
69749,-0.2,0.18,9.6
69784,-0.16,0.19,9.59
69822,-0.13,0.18,9.57
69855,-0.23,0.02,9.67
69890,-0.19,0.12,9.51
69924,-0.11,0.25,9.33
69960,-0.16,0.06,9.42
69993,-0.24,0.22,9.63
70028,-0.1,0.11,9.52
70064,-0.14,0.19,9.47
70096,-0.14,0.32,9.39
70132,-0.08,0.08,9.49
70166,-0.22,0.1,9.61
70204,-0.13,0.11,9.48
70239,-0.17,0.17,9.62
70274,-0.22,0.06,9.61
70306,-0.21,-0.01,9.54
70343,-0.04,0.18,9.59
70378,-0.21,0.23,9.34
70412,-0.12,0.1,9.5
70447,-0.11,0.11,9.72
70481,-0.13,0.24,9.48
70515,-0.04,0.33,9.27
70548,-0.13,0.1,9.58
70586,-0.14,0.1,9.59
70621,-0.19,0.24,9.48
70653,-0.08,0.19,9.61
70688,-0.13,0.17,9.55
70726,-0.08,0.18,9.52
70761,-0.08,0.2,9.63
70794,-0.12,0.19,9.41
70831,-0.04,0.14,9.62
70865,-0.16,0.2,9.54
70898,-0.16,0.21,9.52
70933,-0.15,0.16,9.64
70971,-0.11,0.27,9.38
71006,-0.19,0.11,9.66
71041,-0.17,0.24,9.56
71077,-0.16,0.25,9.42
71112,-0.03,0.3,9.42
71145,-0.16,0.28,9.58
71181,-0.21,0.09,9.61
71218,-0.03,0.28,9.34
71252,-0.21,0.33,9.38
71287,-0.19,0.1,9.66
71322,-0.23,0.09,9.55
71358,-0.21,0.3,9.75
71392,-0.17,0.35,9.5
71427,-0.31,0.29,9.61
71461,-0.21,0.22,9.53
71494,-0.27,0.36,9.38
71530,-0.27,0.46,9.51
71565,-0.26,0.42,9.44
71600,-0.23,0.18,9.54
71634,-0.2,0.26,9.56
71668,-0.13,0.22,9.61
71701,-0.08,0.2,9.55
71739,-0.21,0.28,9.47
71774,-0.05,0.33,9.51
71806,-0.23,0.21,9.5
71843,-0.19,0.36,9.73
71878,-0.2,0.22,9.46
71912,-0.14,0.41,9.52
71945,-0.15,0.25,9.63
71982,-0.1,0.35,9.38
72016,-0.22,0.35,9.46
72049,-0.16,0.21,9.52
72086,-0.19,0.33,9.45
72121,-0.1,0.31,9.49
72156,-0.2,0.28,9.58
72190,-0.13,0.21,9.39
72227,-0.2,0.34,9.56
72260,-0.16,0.21,9.62
72293,-0.17,0.02,9.74
72328,-0.2,0.09,9.67
72364,0.0,0.47,9.45
72396,-0.15,0.44,9.36
72431,-0.19,0.25,9.6
72469,-0.22,0.24,9.77
72504,-0.23,0.33,9.61
72539,-0.33,0.4,9.49
72573,-0.22,0.35,9.48
72609,-0.21,0.31,9.44
72643,-0.31,0.39,9.4
72678,-0.14,0.38,9.44
72711,-0.09,0.22,9.56
72745,-0.21,0.22,9.58
72781,-0.02,0.25,9.35
72815,-0.07,0.36,9.71
72850,-0.27,0.2,9.67
72885,-0.16,0.28,9.59
72920,-0.11,0.4,9.55
72952,-0.37,0.31,9.5
72989,-0.23,0.32,9.47
73024,-0.08,0.3,9.27
73057,-0.29,0.5,9.23
73094,-0.18,0.33,9.38
73128,-0.06,0.3,9.42
73163,0.06,0.24,9.12
73197,0.25,0.17,8.84
73235,0.0,0.36,8.46
73270,0.61,0.44,7.96
73303,0.45,0.28,8.77
73337,-0.34,0.5,8.4
73375,0.14,0.22,10.53
73409,-0.08,-0.06,9.43
73443,0.03,0.29,8.85
73480,0.31,0.1,8.95
73516,-0.42,0.24,8.9
73548,0.46,0.19,10.14
73583,-0.43,0.07,8.94
73621,0.06,0.8,9.45
73654,0.09,-0.1,8.81
73690,-0.58,0.37,9.29
73728,0.27,0.63,8.93
73761,0.17,0.11,9.46
73794,-0.01,0.3,9.44
73829,0.06,0.53,9.33
73865,0.08,0.56,10.38
73897,0.13,0.59,10.51
73933,-0.26,0.58,10.51
73970,-0.09,0.0,10.8
74003,-0.04,0.11,10.26
74038,-0.19,-0.24,9.29
74073,-0.53,-0.21,10.53
74108,-1.03,-0.98,10.46
74142,0.2,-0.15,10.39
74177,0.23,0.32,10.53
74211,0.76,0.32,10.37
74255,0.42,0.29,8.69
74290,-2.22,2.62,15.61
74326,-0.58,-0.38,9.05
74360,-0.49,0.87,9.54
74393,-0.47,0.94,9.53
74429,-0.44,0.86,9.57
74462,-0.47,0.87,9.56
74498,-0.48,0.89,9.54
74531,-0.44,0.85,9.54
74566,-0.45,0.83,9.57
74602,-0.45,0.89,9.56
74637,-0.45,0.85,9.56
74672,-0.45,0.87,9.59
74706,-0.48,0.85,9.54
74743,-0.41,0.87,9.57
74778,-0.45,0.89,9.55
74814,-0.44,0.86,9.55
74847,-0.43,0.83,9.53
74885,-0.44,0.89,9.54
74919,-0.45,0.9,9.55
74954,-0.44,0.86,9.56
74992,-0.43,0.84,9.55
75027,-0.45,0.85,9.55
75062,-0.44,0.84,9.58
75095,-0.45,0.85,9.53
75131,-0.45,0.86,9.55
75166,-0.42,0.86,9.53
75199,-0.45,0.84,9.56
75234,-0.43,0.87,9.56
75272,-0.44,0.86,9.58
75307,-0.44,0.87,9.54
75341,-0.44,0.89,9.5
75378,-0.45,0.9,9.55
75414,-0.45,0.84,9.49
75447,-0.41,0.84,9.56
75482,-0.46,0.91,9.6
75520,-0.49,0.9,9.55
75555,-0.43,0.86,9.59
75590,-0.48,0.9,9.57
75628,-0.45,0.87,9.56
75663,-0.45,0.86,9.55
75696,-0.46,0.87,9.55
75730,-0.45,0.87,9.56
75768,-0.44,0.88,9.58
75802,-0.46,0.9,9.58
75837,-0.45,0.88,9.59
75872,-0.46,0.88,9.57
75910,-0.45,0.87,9.55
75943,-0.46,0.93,9.54
75978,-0.44,0.9,9.56
76016,-0.43,0.9,9.56
76049,-0.44,0.89,9.54
76084,-0.44,0.91,9.57
76120,-0.45,0.94,9.59
76157,-0.44,1.09,9.61
76191,-0.44,0.87,9.51
76226,-0.45,0.91,9.56
76261,-0.45,0.93,9.58
76297,-0.45,0.88,9.52
76333,-0.45,0.88,9.53
76367,-0.46,0.89,9.54
76404,-0.45,0.89,9.55
76439,-0.49,0.9,9.55
76474,-0.45,0.86,9.54
76509,-0.44,0.85,9.55
76546,-0.45,0.89,9.56
76581,-0.44,0.88,9.56
76616,-0.45,0.86,9.56
76652,-0.44,0.88,9.54
76687,-0.45,0.86,9.55
76722,-0.44,0.87,9.56
76756,-0.44,0.87,9.55
76794,-0.44,0.89,9.54
76829,-0.43,0.87,9.56
76864,-0.45,0.87,9.55
76898,-0.45,0.88,9.55
76935,-0.45,0.85,9.56
76971,-0.45,0.89,9.58
77005,-0.46,0.87,9.57
77043,-0.42,0.86,9.54
77078,-0.45,0.86,9.56
77113,-0.45,0.9,9.54
77147,-0.45,0.87,9.55
77185,-0.44,0.87,9.54
77219,-0.46,0.86,9.6
77254,-0.44,0.85,9.57
77289,-0.43,0.87,9.56
77327,-0.45,0.86,9.56
77363,-0.44,0.87,9.57
77395,-0.44,0.81,9.55
77433,-0.45,0.84,9.56
77468,-0.47,0.87,9.57
77504,-0.44,0.83,9.55
77539,-0.45,0.86,9.55
77577,-0.45,0.85,9.53
77612,-0.45,0.86,9.58
77645,-0.45,0.87,9.54
77683,-0.45,0.88,9.58
77718,-0.45,0.87,9.58
77753,-0.45,0.9,9.58
77788,-0.45,0.76,9.54
77826,-0.46,0.76,9.5
77859,-0.46,0.83,9.55
77893,-0.45,0.8,9.53
77928,-0.47,0.79,9.57
77966,-0.45,0.79,9.55
78000,-0.45,0.79,9.51
78034,-0.46,0.81,9.56
78072,-0.47,0.74,9.55
78107,-0.44,0.77,9.57
78142,-0.46,0.74,9.56
78177,-0.45,0.75,9.57
78215,-0.46,0.77,9.59
78248,-0.45,0.78,9.54
78284,-0.44,0.77,9.58
78319,-0.46,0.79,9.57
78352,-0.45,0.77,9.56
78387,-0.46,0.74,9.57
78423,-0.45,0.77,9.59
78459,-0.43,0.76,9.58
78493,-0.45,0.76,9.54
78528,-0.44,0.77,9.58
78564,-0.44,0.76,9.57
78600,-0.45,0.77,9.57
78636,-0.45,0.76,9.57
78670,-0.46,0.76,9.56
78708,-0.46,0.76,9.58
78742,-0.45,0.76,9.56
78777,-0.45,0.75,9.58
78813,-0.45,0.76,9.57
78849,-0.46,0.77,9.53
78884,-0.46,0.75,9.56
78919,-0.46,0.73,9.59
78954,-0.45,0.76,9.58
78992,-0.46,0.75,9.54
79027,-0.46,0.75,9.59
79062,-0.47,0.76,9.58
79098,-0.44,0.76,9.6
79133,-0.45,0.75,9.58
79168,-0.47,0.75,9.58
79202,-0.46,0.75,9.55
79240,-0.45,0.73,9.56
79275,-0.45,0.75,9.57
79310,-0.45,0.73,9.55
79344,-0.46,0.76,9.57
79382,-0.46,0.76,9.55
79417,-0.45,0.74,9.56
79451,-0.45,0.76,9.55
79489,-0.47,0.73,9.54
79524,-0.45,0.72,9.57
79559,-0.45,0.73,9.55
79593,-0.45,0.74,9.54
79631,-0.46,0.74,9.57
79666,-0.45,0.73,9.55
79699,-0.44,0.73,9.55
79737,-0.45,0.74,9.56
79772,-0.45,0.75,9.55
79807,-0.46,0.73,9.57
79842,-0.45,0.73,9.55
79880,-0.46,0.75,9.55
79915,-0.44,0.72,9.57
79948,-0.42,0.73,9.51
79983,-0.46,0.72,9.56
80021,-0.45,0.75,9.56
80056,-0.45,0.74,9.58
80091,-0.45,0.75,9.55
80129,-0.45,0.71,9.56
80164,-0.46,0.73,9.56
80198,-0.45,0.73,9.54
80233,-0.44,0.73,9.58
80271,-0.46,0.72,9.57
80306,-0.45,0.72,9.57
80340,-0.44,0.75,9.53
80376,-0.46,0.73,9.57
80414,-0.43,0.74,9.55
80448,-0.44,0.74,9.53
80483,-0.45,0.71,9.56
80521,-0.45,0.72,9.55
80556,-0.45,0.71,9.55
80591,-0.45,0.74,9.53
80626,-0.45,0.73,9.55
80664,-0.43,0.7,9.6
80698,-0.47,0.76,9.51
80733,-0.44,0.73,9.57
80771,-0.41,0.71,9.58
80805,-0.45,0.77,9.53
80840,-0.46,0.69,9.55
80876,-0.44,0.7,9.55
80914,-0.44,0.74,9.58
80948,-0.46,0.71,9.55
80983,-0.43,0.71,9.54
81017,-0.44,0.74,9.57
81055,-0.43,0.72,9.54
81090,-0.45,0.69,9.57
81126,-0.45,0.71,9.57
81163,-0.43,0.71,9.59
81197,-0.47,0.72,9.54
81231,-0.45,0.73,9.55
81266,-0.45,0.72,9.59
81303,-0.45,0.69,9.56
81338,-0.44,0.7,9.55
81373,-0.45,0.73,9.59
81409,-0.44,0.71,9.56
81445,-0.44,0.71,9.53
81480,-0.44,0.72,9.58
81515,-0.46,0.71,9.59
81552,-0.44,0.72,9.54
81587,-0.46,0.68,9.59
81622,-0.45,0.7,9.56
81656,-0.45,0.69,9.58
81694,-0.44,0.69,9.56
81729,-0.46,0.69,9.56
81765,-0.45,0.69,9.56
81798,-0.46,0.7,9.54
81836,-0.48,0.7,9.58
81871,-0.46,0.69,9.57
81906,-0.43,0.72,9.55
81944,-0.44,0.71,9.54
81979,-0.46,0.68,9.59
82014,-0.46,0.69,9.57
82048,-0.43,0.67,9.49
82085,-0.45,0.72,9.57
82121,-0.44,0.71,9.61
82156,-0.44,0.68,9.54
82194,-0.45,0.72,9.54
82229,-0.46,0.69,9.53
82263,-0.12,1.16,9.62
82295,-1.25,-1.37,11.72
82333,-1.16,-0.88,13.43
82368,-1.07,-2.92,10.58
82401,0.0,-1.92,10.97
82437,-1.18,-1.62,11.53
82484,0.21,-2.04,10.03
82519,0.06,-1.06,10.77
82551,-0.09,-1.39,9.61
82589,-0.21,0.48,9.36
82625,0.5,0.84,6.89
82658,-0.28,0.98,7.43
82693,-0.76,1.56,7.3
82731,-0.91,2.19,8.45
82765,0.06,2.59,7.59
82798,0.06,2.55,8.93
82837,-1.0,2.74,10.76
82872,0.43,2.48,8.6
82905,-0.31,2.72,9.13
82940,0.37,2.48,8.33
82978,0.9,2.46,6.18
83012,0.37,3.02,4.98
83045,0.65,2.69,1.54
83082,0.22,3.68,3.28
83118,2.26,3.19,-1.19
83150,1.59,1.59,-2.97
83186,0.73,3.95,14.03
83224,-1.88,0.76,1.47
83257,-0.13,1.01,17.65
83292,1.74,1.84,15.25
83330,2.78,2.04,14.85
83364,3.38,2.3,16.3
83397,-2.76,2.45,13.6
83433,-2.16,1.88,12.02
83471,-0.41,2.24,9.27
83504,-1.35,1.13,8.82
83538,0.1,1.09,10.25
83577,1.43,0.52,9.01
83610,1.24,0.62,8.88
83644,0.67,1.14,10.78
83679,0.15,1.17,8.79
83716,0.15,1.3,9.19
83748,0.58,1.06,8.76
83784,0.81,0.94,9.09
83819,0.92,0.89,10.29
83850,0.84,0.96,8.81
83886,0.48,0.97,10.24
83920,0.52,0.97,9.66
83956,1.0,1.14,9.05
83991,0.27,1.13,9.8
84027,0.83,1.04,9.56
84060,1.08,1.08,9.35
84096,0.32,1.11,9.41
84131,-0.9,-0.61,9.88
84166,1.43,1.65,9.87
84202,1.12,1.12,9.64
84237,0.75,1.05,9.5
84273,0.4,1.01,9.89
84305,0.12,1.34,9.37
84343,0.62,1.54,9.71
84378,0.6,1.46,8.86
84411,0.57,1.5,9.23
84445,0.4,1.41,9.9
84483,0.48,1.38,9.34
84516,0.38,1.47,9.55
84550,0.13,1.46,9.82
84588,0.33,1.43,9.16
84624,-0.04,1.49,9.73
84657,0.44,1.42,9.92
84691,0.73,1.29,8.92
84729,0.54,1.37,9.24
84763,0.35,1.01,10.07
84796,0.42,1.1,10.01
84832,0.0,1.34,9.78
84869,0.01,1.42,9.34
84901,0.52,1.37,8.89
84937,0.69,1.43,9.87
84975,0.45,1.69,9.58
85008,0.33,1.41,9.13
85043,0.51,1.27,9.61
85078,0.4,1.3,9.31
85113,0.37,1.38,9.46
85146,0.49,1.46,9.65
85181,0.7,1.37,9.57
85218,0.48,1.4,9.29
85251,0.67,1.54,9.7
85285,0.7,1.56,9.86
85319,0.71,1.55,9.8
85355,0.53,1.53,9.49
85390,0.49,1.57,10.08
85426,0.5,1.71,9.68
85460,0.37,1.58,9.55
85497,0.66,1.54,9.61
85532,0.67,1.5,9.99
85567,0.5,1.6,9.91
85602,0.57,1.57,9.69
85637,0.72,1.47,9.59
85671,0.67,1.54,9.72
85704,0.59,1.6,9.74
85742,0.55,1.56,9.62
85776,0.6,1.61,9.71
85811,0.59,1.6,9.79
85844,0.39,1.61,9.56
85882,0.55,1.61,9.87
85916,0.55,1.58,9.71
85949,0.57,1.52,9.51
85987,0.51,1.56,9.84
86021,0.63,1.58,9.84
86053,0.46,1.59,9.84
86088,0.31,1.61,9.75
86126,0.38,1.64,9.78
86159,0.28,1.64,9.91
86193,0.52,1.6,9.57
86227,0.45,1.52,9.66
86258,0.33,1.61,9.75
86293,0.35,1.55,9.57
86328,0.6,1.53,9.77
86364,0.18,1.63,9.76
86396,0.28,1.6,9.98
86431,0.36,1.56,9.72
86466,0.26,1.61,9.74
86502,0.23,1.65,9.89
86536,0.31,1.53,9.73
86571,0.37,1.52,9.77
86607,0.34,1.61,9.86
86642,0.38,1.48,9.62
86677,0.36,1.54,9.71
86710,0.38,1.5,9.83
86747,0.49,1.53,9.77
86781,0.26,1.61,9.89
86814,0.28,1.51,9.72
86847,0.54,1.61,10.02
86886,0.45,1.49,9.78
86921,0.49,1.58,10.07
86953,0.37,1.63,9.45
86991,0.24,1.64,8.78
87027,0.2,1.42,10.95
87060,0.56,1.61,10.11
87094,0.38,1.48,9.93
87131,0.46,1.42,9.93
87164,0.22,1.33,10.23
87197,0.35,1.28,10.23
87235,0.54,1.22,9.77
87270,0.08,1.35,8.93
87303,0.2,0.83,11.45
87337,0.64,1.26,10.72
87375,-0.05,1.3,9.81
87409,0.12,0.84,10.19
87443,-0.02,1.0,11.04
87478,-0.15,1.03,10.45
87514,0.63,1.13,11.58
87546,-0.79,1.34,11.99
87582,-0.56,1.31,11.83
87619,-1.27,1.15,12.05
87653,0.26,1.45,11.39
87688,-0.77,1.26,10.26
87723,0.24,1.2,9.84
87758,0.56,1.16,10.21
87793,0.14,1.15,7.73
87828,0.0,1.18,7.92
87864,0.38,1.31,9.06
87897,0.23,1.84,8.53
87932,-0.15,1.93,10.44
87967,-0.03,2.43,9.7
88003,-0.01,3.13,8.06
88038,0.23,2.91,10.84
88074,1.37,2.54,10.19
88109,0.51,2.46,9.04
88143,0.64,2.6,8.01
88178,0.91,2.57,7.92
88212,0.53,1.72,9.64
88248,1.45,2.03,8.92
88283,0.91,1.42,7.75
88317,0.22,0.82,9.09
88351,0.81,1.17,8.61
88389,1.17,0.9,9.35
88424,0.84,0.28,9.14
88457,0.7,0.24,8.04
88495,0.65,0.17,11.32
88529,0.91,0.81,10.32
88563,0.84,1.38,8.28
88596,1.05,1.66,9.86
88634,0.92,1.83,9.92
88669,0.92,1.86,9.39
88702,0.62,1.78,9.96
88740,0.07,1.53,9.29
88775,0.16,1.49,9.54
88808,0.11,1.47,10.01
88843,0.52,2.0,9.65
88881,0.52,1.9,9.33
88913,0.36,1.94,9.57
88947,0.33,2.18,9.41
88982,0.47,2.03,8.34
89019,0.64,2.48,9.01
89053,0.82,2.11,8.88
89088,0.77,2.27,8.5
89125,1.04,2.59,7.5
89158,1.04,1.84,7.52
89193,0.26,0.81,8.79
89228,-0.01,0.83,9.49
89264,0.45,-0.4,13.23
89296,-0.16,-0.91,12.93
89332,1.36,0.34,11.13
89370,1.09,0.71,12.3
89403,-0.23,0.18,12.26
89438,-0.21,2.1,10.66
89474,0.79,0.76,6.37
89508,-0.36,0.48,7.92
89543,-0.95,2.37,11.4
89578,-0.43,1.32,9.76
89611,-0.45,1.16,9.92
89648,-0.46,0.69,9.78
89682,-0.46,1.01,9.85
89717,-0.44,0.99,9.83
89753,-0.49,0.95,9.86
89788,-0.5,0.91,9.79
89823,-0.52,0.92,9.76
89858,-0.47,0.86,9.93
89895,-0.47,1.43,9.86
89930,-0.52,1.25,9.92
89966,-0.44,0.89,9.79
90002,-0.46,0.77,9.77
90037,-0.53,0.88,9.83
90072,-0.4,1.09,9.83
90106,-0.56,0.88,9.87
90143,-0.48,1.2,9.85
90179,-0.49,0.99,9.83
90212,-0.48,1.06,9.77
90245,-0.49,1.13,9.84
90283,-0.48,1.04,9.82
90317,-0.47,0.92,9.92
90350,-0.5,1.05,9.79
90388,-0.48,0.94,9.81
90422,-0.47,0.82,9.69
90455,-0.5,0.85,9.81
90489,-0.5,0.93,9.8
90536,-0.44,0.87,9.81
90571,-0.49,0.87,9.78
90606,-0.49,1.03,9.82
90644,-0.49,0.85,9.95
90679,-0.52,0.9,9.85
90714,-0.45,0.85,9.81
90746,-0.5,0.88,9.8
90784,-0.51,0.89,9.83
90819,-0.45,0.81,9.84
90852,-0.47,0.86,9.8
90887,-0.53,0.86,9.84
90924,-0.54,0.68,9.86
90956,-0.5,0.79,9.81
91044,-0.46,0.71,9.69
91082,-0.55,0.78,9.7
91116,-0.54,0.73,9.86
91149,-0.52,0.67,9.79
91184,-0.53,0.72,9.82
91222,-0.53,0.74,9.8
91256,-0.54,0.73,9.8
91291,-0.54,0.71,9.82
91329,-0.54,0.72,9.82
91364,-0.53,0.7,9.84
91398,-0.52,0.71,9.79
91432,-0.53,0.7,9.87
91470,-0.49,0.71,9.8
91505,-0.53,0.74,9.86
91540,-0.53,0.71,9.81
91575,-0.54,0.73,9.85
91613,-0.52,0.7,9.84
91646,-0.51,0.69,9.8
91681,-0.52,0.68,9.84
91719,-0.55,0.69,9.86
91753,-0.52,0.66,9.83
91789,-0.51,0.61,9.79
91824,-0.53,0.7,9.85
91862,-0.54,0.7,9.82
91895,-0.54,0.63,9.79
91930,-0.56,0.66,9.81
91964,-0.54,0.61,9.81
92000,-0.55,0.59,9.81
92035,-0.57,0.63,9.87
92069,-0.56,0.57,9.77
92106,-0.49,0.45,9.57
92141,-0.47,0.7,9.84
92213,-0.55,0.6,9.84
92246,-0.61,0.74,9.95
92283,-0.33,0.12,10.35
92318,-0.12,1.31,10.09
92351,-0.51,0.92,9.94
92390,-0.56,0.75,9.88
92424,-0.54,0.69,9.84
92459,-0.52,0.83,9.87
92493,-0.53,0.72,9.81
92531,-0.51,0.66,9.81
92566,-0.53,0.7,9.8
92600,-0.53,0.71,9.82
92635,-0.52,0.69,9.86
92672,-0.54,0.68,9.84
92706,-0.5,0.7,9.79
92742,-0.51,0.7,9.82
92779,-0.52,0.7,9.84
92814,-0.5,0.7,9.82
92848,-0.54,0.7,9.8
92882,-0.51,0.68,9.81
92920,-0.52,0.7,9.82
92954,-0.54,0.71,9.82
92989,-0.5,0.7,9.85
93024,-0.54,0.7,9.82
93057,-0.53,0.72,9.84
93091,-0.52,0.69,9.82
93126,-0.53,0.7,9.8
93164,-0.54,0.71,9.82
93198,-0.52,0.71,9.8
93233,-0.51,0.71,9.81
93267,-0.54,0.69,9.88
93303,-0.49,0.69,9.88
93375,-0.55,0.69,9.87
93410,-0.51,0.7,9.84
93447,-0.52,0.68,9.69
93481,-0.55,0.67,9.86
93516,-0.52,0.69,9.8
93550,-0.54,0.72,9.85
93589,-0.56,0.73,9.8
93624,-0.48,0.68,9.83
93659,-0.55,0.73,9.81
93693,-0.55,0.7,9.78
93731,-0.49,0.68,9.81
93766,-0.52,0.7,9.82
93800,-0.55,0.71,9.82
93838,-0.53,0.71,9.87
93874,-0.54,0.68,9.83
93908,-0.54,0.71,9.8
93943,-0.52,0.7,9.81
93981,-0.5,0.7,9.81
94016,-0.54,0.71,9.8
94050,-0.53,0.69,9.83
94088,-0.52,0.69,9.83
94124,-0.53,0.72,9.85
94158,-0.52,0.7,9.82
94193,-0.52,0.7,9.84
94231,-0.51,0.69,9.81
94266,-0.52,0.71,9.82
94300,-0.52,0.69,9.79
94334,-0.54,0.71,9.85
94372,-0.52,0.69,9.87
94408,-0.5,0.72,9.8
94443,-0.5,0.7,9.83
94516,-0.5,0.69,9.79
94550,-0.52,0.71,9.77
94584,-0.52,0.7,9.83
94619,-0.5,0.7,9.82
94657,-0.53,0.7,9.85
94692,-0.52,0.69,9.79
94727,-0.52,0.69,9.82
94763,-0.51,0.7,9.83
94798,-0.53,0.8,9.84
94834,-0.56,0.56,9.77
94869,-0.51,0.63,9.8
94906,-0.52,0.71,9.85
94941,-0.54,0.6,9.81
94977,-0.5,0.55,9.79
95009,-0.54,0.68,9.81
95046,-0.56,0.67,9.8
95081,-0.52,0.7,9.85
95117,-0.53,0.73,9.87
95153,-0.55,0.59,9.78
95187,-0.55,0.7,9.81
95223,-0.51,0.69,9.84
95256,-0.54,0.6,9.77
95293,-0.52,0.64,9.82
95329,-0.51,0.72,9.89
95364,-0.54,0.66,9.83
95397,-0.54,0.63,9.78
95435,-0.51,0.66,9.83
95470,-0.54,0.66,9.84
95505,-0.5,0.61,9.81
95543,-0.49,0.62,9.83
95578,-0.53,0.67,9.88
95610,-0.5,0.63,9.82
95679,-0.51,0.62,9.84
95717,-0.53,0.63,9.85
95751,-0.5,0.6,9.79
95787,-0.5,0.62,9.81
95823,-0.5,0.62,9.8
95859,-0.53,0.63,9.81
95894,-0.51,0.61,9.8
95929,-0.51,0.64,9.82
95967,-0.53,0.64,9.81
96000,-0.49,0.62,9.8
96035,-0.49,0.8,10.33
96070,-0.55,0.6,9.69
96106,-0.5,0.59,9.85
96142,-0.53,0.66,9.87
96177,-0.53,0.64,9.84
96215,-0.49,0.64,9.85
96248,-0.52,0.63,9.88
96284,-0.49,0.62,9.89
96319,-0.51,0.64,9.87
96356,-0.52,0.61,9.86
96391,-0.49,0.59,9.86
96427,-0.5,0.61,9.78
96461,-0.51,0.63,9.85
96497,-0.47,0.62,9.8
96533,-0.51,0.64,9.84
96568,-0.48,0.63,9.78
96605,-0.5,0.62,9.8
96640,-0.52,0.65,9.83
96674,-0.54,0.64,9.85
96707,-0.46,0.83,9.89
96745,-0.53,0.61,9.76
96780,-0.49,0.95,9.93
96848,-0.54,0.7,9.85
96884,-0.53,0.7,9.81
96921,-0.5,0.66,9.83
96957,-0.51,0.7,9.83
96992,-0.55,0.7,9.82
97030,-0.52,0.7,9.83
97065,-0.54,0.7,9.82
97099,-0.52,0.7,9.85
97134,-0.53,0.72,9.84
97172,-0.49,0.69,9.83
97207,-0.51,0.67,9.8
97243,-0.51,0.7,9.8
97281,-0.53,0.71,9.84
97315,-0.54,0.67,9.82
97349,-0.52,0.71,9.8
97385,-0.54,0.7,9.83
97423,-0.52,0.7,9.82
97459,-0.56,0.7,9.81
97494,-0.53,0.71,9.79
97528,-0.53,0.67,9.83
97566,-0.53,0.67,9.8
97600,-0.54,0.7,9.81
97635,-0.56,0.7,9.8
97673,-0.54,0.68,9.8
97708,-0.52,0.7,9.81
97743,-0.53,0.67,9.82
97778,-0.55,0.7,9.82
97816,-0.54,0.68,9.81
97850,-0.52,0.7,9.82
97886,-0.53,0.7,9.81
97921,-0.52,0.68,9.82
97992,-0.55,0.7,9.79
98028,-0.51,0.72,9.81
98063,-0.54,0.7,9.81
98099,-0.52,0.71,9.81
98135,-0.5,0.7,9.84
98169,-0.51,0.69,9.81
98203,-0.53,0.7,9.81
98241,-0.53,0.71,9.82
98277,-0.53,0.68,9.8
98312,-0.53,0.7,9.83
98349,-0.54,0.69,9.8
98383,-0.54,0.68,9.84
98419,-0.51,0.73,9.85
98452,-0.52,0.67,9.8
98490,-0.52,0.69,9.83
98525,-0.54,0.7,9.81
98560,-0.52,0.65,9.79
98594,-0.5,0.71,9.8
98632,-0.55,0.7,9.81
98667,-0.53,0.71,9.83
98701,-0.52,0.71,9.77
98739,-0.51,0.7,9.81
98774,-0.53,0.69,9.84
98806,-0.52,0.65,9.83
98841,-0.51,0.68,9.81
98880,-0.52,0.71,9.84
98913,-0.49,0.59,9.83
98947,-0.48,0.61,9.79
98994,-0.5,0.65,9.84
99028,-0.47,0.67,9.83
99061,-0.46,0.59,9.8
99131,-0.44,0.62,9.79
99169,-0.46,0.64,9.83
99203,-0.45,0.62,9.78
99237,-0.49,0.63,9.81
99272,-0.47,0.66,9.86
99310,-0.46,0.61,9.83
99345,-0.44,0.62,9.79
99380,-0.47,0.59,9.8
99418,-0.48,0.61,9.83
99450,-0.48,0.61,9.81
99485,-0.44,0.59,9.82
99520,-0.47,0.6,9.8
99557,-0.47,0.62,9.83
99592,-0.44,0.6,9.82
99628,-0.45,0.59,9.81
99665,-0.44,0.59,9.82
99698,-0.48,0.61,9.8
99734,-0.46,0.63,9.81
99769,-0.45,0.6,9.82
99805,-0.45,0.6,9.8
99840,-0.45,0.59,9.81
99874,-0.44,0.6,9.79
99909,-0.44,0.61,9.83
99947,-0.47,0.61,9.78
99982,-0.45,0.6,9.81
100018,-0.47,0.6,9.85
100054,-0.44,0.59,9.81
100088,-0.48,0.64,9.83
100124,-0.47,0.61,9.84
100159,-0.44,0.58,9.82
100197,-0.46,0.59,9.82
100232,-0.47,0.61,9.83
100302,-0.44,0.59,9.82
100340,-0.48,0.59,9.84
100375,-0.45,0.6,9.84
100410,-0.46,0.59,9.82
100445,-0.46,0.57,9.81
100483,-0.46,0.59,9.83
100517,-0.44,0.61,9.93
100551,-0.46,0.6,9.88
100587,-0.46,0.59,9.8
100625,-0.41,0.57,9.79
100660,-0.47,0.58,9.82
100695,-0.46,0.6,9.79
100732,-0.43,0.57,9.83
100767,-0.47,0.58,9.83
100801,-0.46,0.61,9.81
100836,-0.45,0.58,9.83
100874,-0.44,0.59,9.87
100909,-0.44,0.61,9.84
100943,-0.48,0.59,9.82
100981,-0.44,0.59,9.83
101017,-0.45,0.58,9.83
101051,-0.45,0.55,9.83
101086,-0.49,0.6,9.87
101124,-0.45,0.59,9.83
101158,-0.42,0.59,9.87
101193,-0.46,0.6,9.79
101228,-0.45,0.58,9.82
101267,-0.44,0.6,9.81
101301,-0.46,0.62,9.86
101335,-0.43,0.55,9.83
101372,-0.43,0.58,9.82
101443,-0.45,0.58,9.8
101478,-0.44,0.59,9.8
101514,-0.41,0.59,9.88
101550,-0.44,0.6,9.78
101584,-0.46,0.6,9.81
101620,-0.48,0.57,9.79
101657,-0.43,0.58,9.82
101692,-0.48,0.58,9.83
101728,-0.44,0.57,9.81
101763,-0.44,0.59,9.81
101798,-0.45,0.59,9.77
101834,-0.46,0.59,9.85
101869,-0.44,0.58,9.83
101903,-0.45,0.6,9.81
101940,-0.44,0.59,9.85
101975,-0.44,0.58,9.84
102010,-0.44,0.58,9.8
102047,-0.41,0.59,9.73
102082,-0.47,0.59,9.85
102117,-0.44,0.59,9.79
102151,-0.46,0.59,9.8
102189,-0.46,0.59,9.85
102224,-0.48,0.59,9.83
102259,-0.44,0.59,9.79
102297,-0.44,0.58,9.79
102332,-0.44,0.59,9.81
102367,-0.46,0.59,9.82
102401,-0.45,0.57,9.78
102438,-0.45,0.58,9.81
102473,-0.44,0.59,9.82
102508,-0.46,0.6,9.8
102544,-0.44,0.58,9.79
102617,-0.44,0.6,9.83
102650,-0.47,0.58,9.81
102685,-0.46,0.58,9.79
102723,-0.44,0.59,9.82
102758,-0.46,0.58,9.83
102793,-0.44,0.59,9.8
102828,-0.45,0.59,9.82
102866,-0.46,0.6,9.81
102900,-0.38,0.4,9.46
102935,-0.47,0.58,9.73
102973,-0.46,0.6,9.84
103008,-0.44,0.59,9.84
103043,-0.46,0.57,9.81
103078,-0.45,0.58,9.79
103116,-0.44,0.58,9.8
103150,-0.46,0.6,9.79
103185,-0.46,0.59,9.89
103220,-0.44,0.58,9.79
103258,-0.45,0.6,9.8
103292,-0.45,0.57,9.81
103327,-0.53,0.69,10.06
103366,-0.46,0.57,9.85
103399,-0.45,0.6,9.8
103434,-0.44,0.57,9.81
103470,-0.46,0.59,9.81
103505,-0.43,0.57,9.82
103540,-0.46,0.58,9.84
103576,-0.43,0.59,9.8
103613,-0.44,0.58,9.82
103647,-0.44,0.57,9.8
103682,-0.44,0.6,9.83
103716,-0.45,0.59,9.82
103789,-0.46,0.59,9.82
103824,-0.44,0.58,9.81
103859,-0.44,0.58,9.8
103894,-0.46,0.59,9.8
103931,-0.44,0.55,9.82
103967,-0.46,0.58,9.82
104000,-0.44,0.57,9.81
104038,-0.45,0.57,9.83
104074,-0.44,0.59,9.82
104109,-0.44,0.58,9.84
104143,-0.47,0.56,9.84
104181,-0.45,0.59,9.91
104216,-0.48,0.57,9.79
104250,-0.45,0.57,9.71
104288,-0.43,0.57,9.83
104323,-0.45,0.56,9.85
104358,-0.46,0.59,9.82
104393,-0.45,0.57,9.81
104431,-0.45,0.58,9.83
104467,-0.45,0.55,9.82
104500,-0.42,0.59,9.81
104535,-0.46,0.56,9.79
104572,-0.44,0.56,9.82
104608,-0.45,0.57,9.81
104643,-0.45,0.52,9.79
104681,-0.45,0.53,9.77
104717,-0.47,0.54,9.85
104751,-0.45,0.55,9.72
104785,-0.44,0.55,9.79
104823,-0.46,0.55,9.85
104858,-0.44,0.61,9.83
104930,-0.44,0.59,9.82
104968,-0.44,0.59,9.83
105001,-0.44,0.58,9.82
105037,-0.47,0.59,9.8
105072,-0.44,0.58,9.82
105111,-0.44,0.6,9.81
105145,-0.45,0.56,9.82
105180,-0.45,0.58,9.79
105216,-0.45,0.6,9.84
105251,-0.44,0.57,9.83
105287,-0.46,0.6,9.84
105322,-0.48,0.61,9.82
105360,-0.45,0.57,9.83
105395,-0.44,0.6,9.79
105430,-0.45,0.56,9.79
105465,-0.47,0.57,9.89
105501,-0.44,0.57,9.66
105536,-0.45,0.59,9.85
105572,-0.43,0.6,9.78
105610,-0.44,0.59,9.87
105645,-0.46,0.59,9.78
105679,-0.48,0.6,9.84
105714,-0.44,0.59,9.81
105751,-0.44,0.57,9.81
105786,-0.46,0.59,9.79
105822,-0.44,0.58,9.82
105857,-0.43,0.59,9.81
105894,-0.46,0.59,9.83
105930,-0.44,0.58,9.82
105965,-0.46,0.55,9.77
106001,-0.44,0.59,9.8
106037,-0.45,0.58,9.83
106108,-0.44,0.57,9.8
106143,-0.45,0.57,9.8
106181,-0.45,0.58,9.86
106217,-0.44,0.58,9.82
106251,-0.4,0.57,9.76
106289,-0.44,0.61,9.81
106324,-0.45,0.6,9.81
106359,-0.44,0.57,9.82
106394,-0.44,0.59,9.82
106432,-0.47,0.59,9.8
106467,-0.42,0.55,9.68
106500,-0.46,0.57,9.77
106535,-0.44,0.58,9.82
106573,-0.46,0.57,9.78
106608,-0.44,0.56,9.8
106643,-0.46,0.59,9.92
106681,-0.44,0.56,9.87
106717,-0.45,0.59,9.77
106750,-0.42,0.59,9.8
106786,-0.44,0.57,9.76
106824,-0.44,0.57,9.81
106859,-0.46,0.58,9.84
106894,-0.45,0.57,9.83
106932,-0.45,0.58,9.84
106967,-0.45,0.59,9.86
107000,-0.44,0.58,9.8
107035,-0.46,0.59,9.81
107073,-0.44,0.59,9.82
107108,-0.43,0.59,9.81
107144,-0.44,0.57,9.81
107182,-0.46,0.57,9.83
107252,-0.44,0.59,9.86
107288,-0.44,0.6,9.84
107323,-0.46,0.56,9.83
107361,-0.47,0.6,9.86
107395,-0.47,0.58,9.83
107429,-0.44,0.56,9.82
107465,-0.45,0.58,9.84
107510,-0.44,0.58,9.84
107544,-0.44,0.57,9.8
107580,-0.45,0.57,9.81
107618,-0.45,0.56,9.81
107652,-0.44,0.57,9.83
107686,-0.46,0.6,9.85
107722,-0.44,0.57,9.84
107760,-0.45,0.56,9.81
107794,-0.46,0.59,9.81
107830,-0.44,0.58,9.82
107868,-0.46,0.58,9.83
107901,-0.44,0.58,9.82
107937,-0.45,0.61,9.83
107972,-0.44,0.54,9.82
108010,-0.45,0.58,9.81
108045,-0.44,0.55,9.83
108080,-0.45,0.58,9.8
108114,-0.42,0.57,9.82
108151,-0.44,0.56,9.82
108187,-0.45,0.58,9.85
108222,-0.45,0.58,9.81
108261,-0.44,0.58,9.81
108295,-0.44,0.59,9.8
108331,-0.45,0.58,9.82
108401,-0.44,0.56,9.81
108440,-0.42,0.57,9.82
108475,-0.44,0.57,9.83
108510,-0.45,0.56,9.84
108548,-0.43,0.59,9.8
108582,-0.44,0.58,9.81
108618,-0.44,0.58,9.83
108652,-0.45,0.58,9.82
108690,-0.46,0.57,9.83
108726,-0.45,0.59,9.83
108761,-0.45,0.56,9.83
108794,-0.44,0.55,9.82
108832,-0.43,0.56,9.83
108868,-0.48,0.56,9.84
108902,-0.46,0.56,9.8
108940,-0.44,0.57,9.83
108975,-0.46,0.58,9.84
109010,-0.44,0.55,9.82
109044,-0.41,0.6,9.81
109082,-0.47,0.54,9.82
109117,-0.45,0.56,9.86
109152,-0.44,0.58,9.79
109190,-0.45,0.57,9.84
109224,-0.44,0.56,9.83
109260,-0.44,0.58,9.81
109294,-0.44,0.58,9.79
109332,-0.44,0.54,9.84
109368,-0.42,0.58,9.82
109402,-0.45,0.56,9.8
109436,-0.42,0.58,9.82
109475,-0.47,0.58,9.83
109510,-0.44,0.56,9.79
109580,-0.44,0.59,9.84
109618,-0.44,0.57,9.85
109652,-0.43,0.56,9.82
109688,-0.43,0.56,9.82
109724,-0.43,0.56,9.8
109761,-0.43,0.56,9.8
109796,-0.48,0.56,9.81
109831,-0.45,0.57,9.79
109869,-0.44,0.54,9.8
109903,-0.44,0.58,9.85
109938,-0.45,0.57,9.86
109974,-0.45,0.59,9.81
110012,-0.44,0.57,9.8
110046,-0.43,0.58,9.8
110081,-0.46,0.56,9.83
110116,-0.44,0.55,9.84
110153,-0.44,0.55,9.79
110188,-0.45,0.55,9.87
110224,-0.44,0.57,9.84
110262,-0.44,0.58,9.8
110296,-0.42,0.56,9.78
110330,-0.46,0.58,9.85
110366,-0.44,0.58,9.8
110402,-0.45,0.57,9.81
110438,-0.45,0.57,9.84
110473,-0.44,0.57,9.82
110511,-0.43,0.56,9.82
110544,-0.43,0.57,9.79
110580,-0.44,0.57,9.83
110615,-0.45,0.56,9.83
110652,-0.44,0.56,9.81
110723,-0.42,0.56,9.83
110758,-0.42,0.57,9.81
110793,-0.43,0.56,9.79
110831,-0.44,0.57,9.84
110867,-0.43,0.57,9.83
110900,-0.45,0.58,9.79
110938,-0.44,0.57,9.82
110973,-0.43,0.57,9.82
111008,-0.42,0.56,9.82
111043,-0.45,0.57,9.82
111081,-0.43,0.57,9.82
111117,-0.44,0.55,9.81
111151,-0.43,0.58,9.83
111188,-0.44,0.57,9.83
111224,-0.45,0.58,9.8
111259,-0.43,0.56,9.82
111294,-0.45,0.55,9.79
111332,-0.46,0.59,9.84
111367,-0.47,0.57,9.82
111400,-0.43,0.58,9.8
111436,-0.46,0.58,9.83
111474,-0.44,0.58,9.83
111509,-0.45,0.57,9.83
111544,-0.45,0.59,9.82
111582,-0.46,0.56,9.83
111617,-0.44,0.57,9.83
111650,-0.44,0.59,9.82
111686,-0.45,0.57,9.82
111724,-0.44,0.55,9.81
111759,-0.44,0.58,9.82
111794,-0.44,0.56,9.83
111832,-0.44,0.57,9.83
111902,-0.49,0.58,9.8
111938,-0.44,0.58,9.8
111974,-0.43,0.56,9.82
112011,-0.44,0.56,9.83
112046,-0.44,0.56,9.79
112080,-0.45,0.55,9.79
112116,-0.45,0.56,9.86
112153,-0.45,0.57,9.81
112188,-0.44,0.57,9.82
112224,-0.45,0.57,9.83
112262,-0.43,0.57,9.81
112295,-0.45,0.58,9.8
112330,-0.43,0.56,9.82
112366,-0.42,0.56,9.83
112402,-0.45,0.55,9.78
112438,-0.48,0.63,9.82
112474,-0.41,0.47,9.82
112512,-0.45,0.62,9.83
112545,-0.48,0.56,9.81
112580,-0.42,0.52,9.83
112616,-0.47,0.59,9.81
112653,-0.47,0.57,9.79
112688,-0.43,0.56,9.85
112723,-0.44,0.6,9.81
112758,-0.45,0.58,9.82
112796,-0.44,0.57,9.83
112831,-0.45,0.57,9.81
112867,-0.42,0.59,9.81
112903,-0.44,0.57,9.81
112939,-0.44,0.58,9.82
112973,-0.44,0.57,9.82
113008,-0.46,0.56,9.81
113082,-0.45,0.58,9.84
113117,-0.45,0.57,9.8
113150,-0.44,0.57,9.83
113189,-0.43,0.54,9.82
113224,-0.45,0.58,9.8
113260,-0.44,0.57,9.78
113294,-0.44,0.57,9.8
113332,-0.44,0.56,9.84
113368,-0.44,0.55,9.82
113401,-0.44,0.59,9.77
113439,-0.44,0.58,9.8
113475,-0.45,0.57,9.82
113510,-0.44,0.56,9.79
113544,-0.47,0.57,9.78
113582,-0.47,0.57,9.81
113617,-0.45,0.56,9.84
113651,-0.44,0.55,9.77
113686,-0.44,0.56,9.84
113724,-0.45,0.57,9.79
113760,-0.44,0.58,9.8
113794,-0.45,0.58,9.78
113831,-0.45,0.58,9.83
113867,-0.46,0.57,9.84
113901,-0.44,0.55,9.82
113936,-0.43,0.55,9.87
113975,-0.45,0.58,9.84
114010,-0.47,0.56,9.97
114044,-0.47,0.58,9.8
114082,-0.43,0.58,9.83
114117,-0.45,0.59,9.84
114151,-0.45,0.57,9.8
114223,-0.43,0.58,9.77
114260,-0.43,0.57,9.84
114294,-0.64,0.97,10.3
114329,-0.2,0.47,9.73
114365,-0.46,2.08,10.32
114401,-0.5,-0.09,9.43
114436,-0.49,0.96,9.9
114471,-0.48,0.69,9.88
114507,-0.47,0.73,9.79
114543,-0.48,0.73,9.82
114578,-0.46,0.75,9.83
114614,-0.49,0.7,9.88
114650,-0.49,0.73,9.78
114684,-0.49,0.63,9.82
114719,-0.52,0.7,9.85
114756,-0.51,0.69,9.8
114792,-0.5,0.69,9.82
114827,-0.53,0.7,9.81
114860,-0.52,0.68,9.81
114896,-0.53,0.77,9.8
114932,-0.53,0.73,9.84
114967,-0.52,0.68,9.85
115001,-0.51,0.71,9.8
115040,-0.51,0.7,9.85
115075,-0.5,0.71,9.82
115109,-0.51,0.73,9.8
115146,-0.5,0.72,9.82
115182,-0.51,0.7,9.86
115218,-0.53,0.71,9.82
115252,-0.52,0.7,9.85
115290,-0.51,0.7,9.83
115324,-0.52,0.71,9.82
115396,-0.49,0.7,9.82
115434,-0.53,0.7,9.83
115469,-0.52,0.69,9.83
115503,-0.49,0.71,9.79
115538,-0.52,0.7,9.86
115576,-0.51,0.69,9.83
115611,-0.51,0.71,9.78
115646,-0.52,0.72,9.85
115681,-0.51,0.7,9.8
115719,-0.51,0.68,9.79
115753,-0.5,0.7,9.77
115788,-0.49,0.71,9.82
115826,-0.51,0.68,9.8
115862,-0.53,0.7,9.81
115896,-0.51,0.7,9.81
115931,-0.52,0.7,9.83
115978,-0.5,0.7,9.75
116014,-0.5,0.71,9.85
116046,-0.5,0.69,9.83
116085,-0.52,0.7,9.84
116120,-0.52,0.7,9.79
116156,-0.52,0.68,9.78
116191,-0.49,0.71,9.86
116229,-0.55,0.67,9.84
116264,-0.52,0.7,9.85
116298,-0.55,0.71,9.82
116333,-0.54,0.68,9.9
116371,-0.52,0.72,9.74
116407,-0.51,0.74,9.72
116442,-0.54,0.7,9.84
116516,-0.52,0.7,9.85
116550,-0.51,0.69,9.84
116586,-0.51,0.71,9.8
116621,-0.52,0.7,9.82
116659,-0.53,0.7,9.83
116694,-0.53,0.7,9.87
116728,-0.53,0.67,9.8
116767,-0.5,0.7,9.77
116801,-0.51,0.7,9.81
116837,-0.52,0.7,9.86
116872,-0.51,0.67,9.81
116911,-0.53,0.71,9.86
116944,-0.54,0.67,9.82
116979,-0.51,0.7,9.83
117014,-0.51,0.69,9.81
117051,-0.51,0.7,9.78
117087,-0.5,0.71,9.81
117122,-0.55,0.69,9.85
117160,-0.54,0.69,9.83
117194,-0.52,0.67,9.78
117229,-0.53,0.69,9.79
117264,-0.47,0.49,9.74
117301,-0.52,0.78,9.84
117337,-0.56,0.67,9.88
117371,-0.53,0.63,9.81
117407,-0.52,0.5,9.72
117442,-0.58,0.59,9.87
117478,-0.53,0.7,9.84
117513,-0.52,0.58,9.81
117549,-0.48,0.66,9.78
117584,-0.52,0.65,9.86
117619,-0.5,0.63,9.78
117694,-0.44,0.67,9.81
117730,-0.44,0.62,9.8
117763,-0.45,0.64,9.78
117796,-0.48,0.62,9.82
117834,-0.5,0.64,9.83
117869,-0.44,0.61,9.85
117904,-0.44,0.57,9.82
117939,-0.5,0.61,9.83
117977,-0.47,0.59,9.82
118012,-0.47,0.61,9.84
118046,-0.47,0.59,9.79
118084,-0.45,0.59,9.8
118119,-0.45,0.58,9.81
118154,-0.47,0.59,9.85
118189,-0.47,0.59,9.81
118226,-0.46,0.59,9.86
118262,-0.46,0.55,9.77
118295,-0.44,0.59,9.77
118333,-0.49,0.61,9.88
118368,-0.46,0.55,9.81
118403,-0.44,0.58,9.82
118437,-0.44,0.6,9.82
118475,-0.45,0.57,9.81
118511,-0.47,0.55,9.8
118545,-0.44,0.55,9.83
118580,-0.45,0.57,9.81
118619,-0.47,0.58,9.83
118652,-0.44,0.59,9.85
118688,-0.44,0.56,9.81
118726,-0.46,0.57,9.8
118761,-0.45,0.56,9.81
118795,-0.46,0.56,9.81
118831,-0.45,0.58,9.86
118868,-0.44,0.55,9.81
118902,-0.47,0.58,9.87
118937,0.41,2.2,10.83
118976,-0.55,0.48,9.43
119009,-0.43,0.66,9.91
119044,-0.46,0.55,9.85
119078,-0.46,0.59,9.87
119116,-0.44,0.59,9.79
119150,-0.45,0.59,9.8
119186,-0.55,0.59,10.29
119222,-0.44,0.55,9.79
119261,-0.48,0.59,9.84
119294,-0.46,0.56,9.76
119329,-0.44,0.58,9.84
119367,-0.46,0.58,9.81
119401,-0.47,0.59,9.78
119437,-0.45,0.58,9.79
119472,-0.47,0.58,9.88
119511,-0.47,0.59,9.82
119544,-0.45,0.59,9.86
119579,-0.46,0.58,9.83
119618,-0.47,0.57,9.85
119652,-0.45,0.61,9.78
119687,-0.45,0.6,9.78
119721,-0.44,0.59,9.8
119760,-0.48,0.61,9.81
119794,-0.45,0.57,9.79
119829,-0.46,0.59,9.84
119865,-0.45,0.59,9.83
119901,-0.45,0.57,9.78
119937,-0.44,0.59,9.82
119971,-0.45,0.58,9.82
120010,-0.46,0.59,9.84
120044,-0.43,0.59,9.83
120079,-0.48,0.58,9.83
120115,-0.46,0.59,9.83
120152,-0.47,0.57,9.83
120187,-0.46,0.55,9.83
120222,-0.46,0.61,9.85
120258,-0.46,0.58,9.79
120296,-0.46,0.59,9.81
120331,-0.44,0.59,9.8
120366,-0.44,0.57,9.84
120402,-0.45,0.59,9.79
120438,-0.45,0.58,9.8
120473,-0.45,0.57,9.79
120509,-0.44,0.58,9.78
120546,-0.45,0.58,9.79
120582,-0.47,0.59,9.81
120616,-0.48,0.59,9.82
120653,-0.47,0.58,9.79
120688,-0.47,0.59,9.81
120724,-0.46,0.57,9.83
120759,-0.44,0.59,9.79
120797,-0.46,0.59,9.77
120832,-0.45,0.58,9.8
120866,-0.47,0.57,9.82
120900,-0.47,0.58,9.8
120939,-0.45,0.59,9.82
120974,-0.48,0.59,9.83
121010,-0.45,0.59,9.84
121047,-0.47,0.58,9.81
121081,-0.48,0.57,9.81
121117,-0.48,0.59,9.76
121151,-0.56,0.66,10.59
121190,-0.48,0.59,9.96
121226,-0.46,0.58,9.9
121261,-0.45,0.58,9.77
121294,-0.47,0.59,9.82
121332,-0.45,0.57,9.81
121367,-0.45,0.58,9.87
121401,-0.43,0.58,9.79
121440,-0.43,0.57,9.85
121475,-0.46,0.59,9.81
121509,-0.47,0.57,9.87
121544,-0.43,0.58,9.77
121582,-0.45,0.59,9.89
121617,-0.48,0.58,9.82
121651,-0.44,0.59,9.82
121689,-0.46,0.6,9.86
121724,-0.45,0.59,9.81
121759,-0.44,0.59,9.82
121794,-0.47,0.57,9.81
121832,-0.46,0.58,9.83
121867,-0.48,0.58,9.82
121900,-0.45,0.58,9.79
121935,-0.47,0.59,9.82
121972,-0.47,0.59,9.79
122008,-0.46,0.58,9.82
122043,-0.44,0.59,9.79
122081,-0.46,0.58,9.82
122116,-0.44,0.6,9.8
122149,-0.44,0.59,9.8
122185,-0.46,0.59,9.81
122223,-0.46,0.58,9.84
122258,-0.46,0.58,9.82
122293,-0.47,0.58,9.82
122331,-0.47,0.58,9.83
122366,-0.45,0.6,9.81
122399,-0.46,0.56,9.77
122434,-0.47,0.6,9.82
122472,-0.44,0.59,9.85
122507,-0.45,0.59,9.82
122543,-0.45,0.59,9.87
122577,-0.44,0.59,9.77
122615,-0.48,0.58,9.81
122649,-0.48,0.56,9.81
122684,-0.45,0.59,9.8
122722,-0.47,0.57,9.83
122758,-0.45,0.59,9.83
122792,-0.46,0.59,9.82
122827,-0.46,0.59,9.86
122865,-0.46,0.57,9.81
122899,-0.45,0.6,9.81
122934,-0.46,0.61,9.8
122970,-0.45,0.57,9.82
123006,-0.45,0.59,9.83
123041,-0.46,0.59,9.84
123076,-0.44,0.59,9.86
123114,-0.43,0.59,9.83
123148,-0.46,0.58,9.82
123184,-0.44,0.59,9.84
123218,-0.45,0.58,9.82
123255,-0.47,0.58,9.76
123290,-0.47,0.57,9.8
123326,-0.45,0.58,9.82
123364,-0.47,0.58,9.83
123397,-0.46,0.57,9.83
123432,-0.44,0.61,9.86
123467,-0.45,0.58,9.83
123504,-0.47,0.56,9.81
123539,-0.47,0.58,9.82
123574,-0.46,0.58,9.78
123609,-0.46,0.58,9.79
123646,-0.46,0.58,9.79
123681,-0.47,0.59,9.83
123716,-0.47,0.59,9.82
123753,-0.47,0.58,9.82
123788,-0.45,0.6,9.84
123824,-0.46,0.59,9.82
123858,-0.47,0.57,9.82
123896,-0.46,0.57,9.81
123931,-0.45,0.57,9.77
123966,-0.42,0.57,9.71
124003,-0.47,0.57,9.8
124038,-0.48,0.57,9.85
124073,-0.47,0.59,9.83
124108,-0.46,0.57,9.82
124146,-0.45,0.57,9.82
124181,-0.47,0.59,9.83
124216,-0.46,0.59,9.81
124250,-0.45,0.58,9.78
124301,-0.45,0.58,9.78
124337,-0.43,0.57,9.79
124371,-0.45,0.59,9.86
124409,-0.44,0.58,9.79
124443,-0.44,0.59,9.84
124478,-0.48,0.58,9.82
124514,-0.47,0.6,9.85
124550,-0.45,0.59,9.82
124584,-0.47,0.57,9.78
124619,-0.46,0.58,9.84
124653,-0.46,0.59,9.79
124691,-0.46,0.61,9.81
124726,-0.47,0.59,9.86
124761,-0.46,0.57,9.77
124797,-0.47,0.59,9.79
124833,-0.46,0.58,9.78
124868,-0.48,0.57,9.84
124901,-0.48,0.56,9.8
124939,-0.47,0.57,9.83
124974,-0.47,0.6,9.84
125008,-0.48,0.6,9.8
125046,-0.48,0.6,9.79
125081,-0.46,0.59,9.87
125116,-0.46,0.6,9.81
125150,-0.47,0.57,9.8
125188,-0.44,0.59,9.82
125222,-0.46,0.58,9.85
125258,-0.48,0.59,9.82
125293,-0.46,0.59,9.8
125331,-0.46,0.58,9.82
125366,-0.44,0.59,9.79
125399,-0.48,0.57,9.8
125436,-0.47,0.58,9.85
125472,-0.46,0.59,9.82
125507,-0.48,0.57,9.82
125542,-0.44,0.58,9.79
125580,-0.47,0.59,9.83
125615,-0.44,0.6,9.82
125648,-0.49,0.58,9.81
125683,-0.45,0.55,9.78
125721,-0.47,0.6,9.82
125756,-0.48,0.57,9.8
125792,-0.49,0.56,9.84
125829,-0.44,0.6,9.84
125864,-0.46,0.56,9.82
125897,-0.47,0.57,9.78
125933,-0.47,0.57,9.82
125970,-0.45,0.57,9.82
126006,-0.5,0.6,9.8
126041,-0.47,0.59,9.83
126078,-0.47,0.55,9.81
126113,-0.46,0.57,9.83
126147,-0.45,0.59,9.81
126182,-0.46,0.56,9.79
126220,-0.45,0.58,9.78
126255,-0.46,0.61,9.8
126290,-0.44,0.59,9.81
126325,-0.45,0.58,9.84
126363,-0.47,0.57,9.79
126396,-0.44,0.59,9.8
126432,-0.45,0.58,9.81
126470,-0.44,0.59,9.82
126503,-0.46,0.59,9.8
126539,-0.44,0.59,9.83
126574,-0.46,0.58,9.81
126612,-0.47,0.57,9.83
126646,-0.47,0.59,9.8
126681,-0.45,0.59,9.84
126715,-0.45,0.59,9.82
126752,-0.44,0.59,9.83
126787,-0.47,0.58,9.8
126822,-0.46,0.59,9.8
126860,-0.47,0.59,9.82
126894,-0.44,0.6,9.83
126928,-0.44,0.59,9.82
126964,-0.44,0.6,9.81
126999,-0.47,0.59,9.79
127035,-0.48,0.59,9.82
127070,-0.48,0.58,9.83
127109,-0.47,0.57,9.83
127142,-0.45,0.58,9.83
127177,-0.46,0.58,9.83
127212,-0.46,0.58,9.8
127249,-0.46,0.56,9.83
127284,-0.46,0.58,9.81
127319,-0.45,0.58,9.8
127352,-0.46,0.59,9.79
127390,-0.47,0.59,9.81
127425,-0.47,0.58,9.82
127461,-0.43,0.55,9.82
127497,-0.47,0.57,9.84
127533,-0.47,0.58,9.82
127567,-0.47,0.6,9.81
127600,-0.44,0.58,9.79
127638,-0.47,0.6,9.79
127673,-0.44,0.6,9.83
127708,-0.45,0.59,9.82
127746,-0.48,0.6,9.81
127780,-0.49,0.57,9.82
127868,-0.46,0.59,9.85
127902,-0.46,0.57,9.84
127940,-0.48,0.58,9.78
127975,-0.49,0.59,9.82
128011,-0.45,0.58,9.79
128044,-0.48,0.57,9.8
128081,-0.46,0.59,9.81
128116,-0.45,0.58,9.82
128150,-0.47,0.57,9.8
128188,-0.51,0.61,9.85
128223,-0.45,0.55,9.81
128258,-0.46,0.6,9.83
128292,-0.46,0.59,9.79
128330,-0.5,0.59,9.84
128365,-0.47,0.59,9.84
128398,-0.47,0.56,9.79
128433,-0.46,0.56,9.85
128472,-0.47,0.56,9.82
128506,-0.45,0.58,9.77
128541,-0.44,0.57,9.79
128579,-0.44,0.58,9.77
128615,-0.48,0.62,9.84
128648,-0.46,0.56,9.8
128684,-0.44,0.59,9.78
128720,-0.44,0.6,9.82
128755,-0.47,0.59,9.82
128791,-0.43,0.58,9.78
128829,-0.76,0.62,9.98
128862,0.32,-0.58,8.92
128894,-0.24,1.01,9.88
128930,-0.54,0.77,9.86
129005,-0.51,0.76,9.85
129040,-0.5,0.69,9.78
129075,-0.5,0.7,9.78
129110,-0.52,0.7,9.84
129146,-0.5,0.7,9.79
129182,-0.49,0.68,9.77
129217,-0.5,0.71,9.87
129253,-0.49,0.69,9.84
129288,-0.52,0.7,9.77
129323,-0.49,0.69,9.79
129357,-0.51,0.69,9.82
129395,-0.54,0.7,9.83
129430,-0.52,0.7,9.82
129465,-0.5,0.71,9.8
129501,-0.5,0.72,9.83
129537,-0.52,0.71,9.8
129571,-0.48,0.69,9.82
129606,-0.49,0.7,9.82
129644,-0.5,0.69,9.8
129679,-0.51,0.7,9.8
129715,-0.52,0.7,9.81
129748,-0.54,0.72,9.8
129785,-0.52,0.7,9.81
129820,-0.53,0.71,9.85
129855,-0.51,0.7,9.84
129893,-0.52,0.71,9.88
129928,-0.52,0.7,9.82
129963,-0.51,0.7,9.84
129996,-0.5,0.7,9.82
130034,-0.49,0.68,9.83
130069,-0.52,0.72,9.67
130105,-0.5,0.73,9.81
130179,-0.51,0.7,9.84
130214,-0.6,0.64,9.91
130247,-0.44,0.57,9.95
130282,-0.26,0.43,9.52
130320,-0.47,0.79,9.79
130355,-0.45,0.79,9.78
130391,-0.54,0.7,9.83
130425,-0.49,0.73,9.83
130463,-0.47,0.68,9.84
130497,-0.52,0.71,9.82
130533,-0.51,0.68,9.81
130571,-0.51,0.7,9.83
130606,-0.51,0.7,9.83
130640,-0.5,0.71,9.77
130676,-0.49,0.69,9.83
130714,-0.52,0.72,9.83
130748,-0.5,0.7,9.82
130783,-0.49,0.71,9.82
130821,-0.53,0.72,9.82
130856,-0.51,0.7,9.78
130891,-0.5,0.68,9.81
130926,-0.49,0.71,9.79
130964,-0.51,0.74,9.77
130998,-0.49,0.69,9.82
131033,-0.51,0.68,9.82
131067,-0.51,0.69,9.83
131105,-0.53,0.69,9.78
131140,-0.51,0.7,9.79
131176,-0.52,0.7,9.81
131214,-0.52,0.71,9.84
131248,-0.5,0.7,9.77
131282,-0.52,0.7,9.8
131352,-0.59,0.7,9.55
131391,-0.41,1.03,10.01
131426,-0.64,0.63,9.81
131460,-0.38,0.74,9.95
131496,-0.52,0.75,9.9
131531,-0.55,0.61,9.85
131567,-0.47,0.7,9.82
131600,-0.51,0.72,9.73
131638,-0.51,0.64,9.8
131673,-0.49,0.67,9.81
131708,-0.51,0.71,9.86
131742,-0.53,0.68,9.78
131780,-0.49,0.71,9.86
131815,-0.51,0.79,9.79
131849,-0.52,0.71,9.8
131888,-0.48,0.66,9.8
131922,-0.46,0.75,9.8
131957,-0.51,0.72,9.81
131992,-0.5,0.69,9.82
132030,-0.5,0.7,9.84
132065,-0.5,0.71,9.79
132098,-0.5,0.69,9.84
132135,-0.5,0.72,9.79
132171,-0.49,0.67,9.84
132206,-0.5,0.7,9.81
132241,-0.5,0.72,9.77
132279,-0.48,0.69,9.85
132314,-0.48,0.69,9.82
132347,-0.51,0.7,9.79
132382,-0.54,0.7,9.82
132420,-0.5,0.69,9.81
132491,-0.51,0.7,9.8
132526,-0.52,0.7,9.83
132563,-0.52,0.7,9.81
132597,-0.46,0.71,9.77
132632,-0.52,0.7,9.85
132667,-0.51,0.69,9.82
132713,-0.52,0.68,9.83
132747,-0.51,0.7,9.8
132783,-0.48,0.69,9.82
132820,-0.49,0.69,9.8
132855,-0.52,0.71,9.82
132890,-0.49,0.68,9.85
132925,-0.51,0.69,9.83
132964,-0.49,0.72,9.82
132998,-0.51,0.7,9.81
133032,-0.51,0.69,9.84
133067,-0.5,0.7,9.77
133104,-0.48,0.67,9.81
133139,-0.53,0.7,9.83
133175,-0.51,0.7,9.85
133213,-0.51,0.71,9.83
133246,-0.52,0.73,9.83
133281,-0.52,0.67,9.83
133316,-0.51,0.69,9.8
133353,-0.49,0.71,9.84
133388,-0.5,0.69,9.82
133424,-0.49,0.72,9.81
133462,-0.51,0.7,9.81
133494,-0.51,0.67,9.79
133530,-0.48,0.69,9.79
133565,-0.58,0.74,9.79
133637,-0.54,0.7,9.79
133671,-0.52,0.71,9.86
133707,-0.48,0.71,9.74
133741,-0.51,0.7,9.75
133779,-0.5,0.74,9.8
133815,-0.49,0.71,9.78
133849,-0.51,0.69,9.83
133886,-0.53,0.65,9.84
133922,-0.52,0.66,9.8
133957,-0.48,0.7,9.8
133991,-0.51,0.72,9.86
134029,-0.54,0.66,9.81
134065,-0.51,0.68,9.8
134097,-0.52,0.72,9.8
134135,-0.49,0.69,9.83
134170,-0.49,0.69,9.8
134206,-0.54,0.68,9.86
134241,-0.52,0.68,9.8
134279,-0.51,0.7,9.82
134313,-0.49,0.7,9.81
134347,-0.51,0.65,9.84
134382,-0.55,0.84,9.79
134420,-0.45,0.63,9.84
134456,-0.52,0.59,9.92
134491,-0.56,0.73,9.77
134529,-0.49,0.68,9.77
134563,-0.48,0.7,9.93
134597,-0.54,0.72,9.76
134632,-0.49,0.69,9.86
134670,-0.51,0.71,9.85
134706,-0.55,0.7,9.81
134740,-0.51,0.7,9.79
134813,-0.52,0.67,9.79
134847,-0.5,0.7,9.79
134882,-0.49,0.68,9.82
134918,-0.5,0.66,9.83
134956,-0.51,0.67,9.78
134990,-0.52,0.72,9.78
135025,-0.53,0.73,9.88
135061,-0.53,0.68,9.87
135097,-0.46,0.69,9.74
135133,-0.51,0.76,9.87
135168,-0.56,0.71,9.81
135205,-0.47,0.65,9.81
135240,-0.55,0.7,9.76
135275,-0.53,0.7,9.85
135311,-0.48,0.7,9.82
135347,-0.52,0.72,9.83
135382,-0.48,0.69,9.82
135417,-0.48,0.7,9.82
135454,-0.52,0.71,9.81
135490,-0.51,0.7,9.85
135525,-0.53,0.7,9.83
135561,-0.49,0.7,9.82
135597,-0.47,0.7,9.8
135632,-0.52,0.7,9.84
135667,-0.51,0.69,9.84
135701,-0.5,0.68,9.8
135739,-0.49,0.69,9.82
135774,-0.51,0.7,9.82
135809,-0.48,0.69,9.86
135845,-0.51,0.71,9.79
135881,-0.52,0.69,9.83
135951,-0.51,0.71,9.79
135986,-0.51,0.7,9.83
136024,-0.51,0.7,9.82
136059,-0.51,0.7,9.8
136093,-0.53,0.72,9.8
136131,-0.49,0.7,9.82
136166,-0.51,0.71,9.82
136200,-0.52,0.71,9.81
136236,-0.54,0.7,9.8
136273,-0.47,0.68,9.82
136308,-0.51,0.7,9.81
136343,-0.53,0.72,9.77
136378,-0.48,0.67,9.82
136416,-0.49,0.71,9.83
136451,-0.52,0.71,9.81
136485,-0.51,0.69,9.82
136523,-0.47,0.69,9.83
136559,-0.53,0.72,9.82
136593,-0.51,0.7,9.77
136628,-0.5,0.69,9.78
136666,-0.52,0.72,9.85
136699,-0.52,0.73,9.79
136735,-0.49,0.68,9.81
136773,-0.53,0.69,9.84
136809,-0.54,0.71,9.81
136843,-0.51,0.69,9.8
136878,-0.5,0.7,9.8
136916,-0.53,0.7,9.83
136950,-0.53,0.7,9.8
136985,-0.5,0.7,9.85
137021,-0.51,0.7,9.82
137059,-0.5,0.72,9.81
137127,-0.53,0.7,9.83
137163,-0.52,0.71,9.82
137199,-0.53,0.73,9.8
137235,-0.48,0.69,9.78
137271,-0.5,0.71,9.82
137306,-0.53,0.71,9.82
137344,-0.47,0.7,9.78
137378,-0.51,0.67,9.83
137414,-0.52,0.71,9.82
137450,-0.52,0.71,9.83
137486,-0.52,0.7,9.8
137521,-0.52,0.72,9.82
137555,-0.52,0.73,9.79
137593,-0.52,0.69,9.79
137628,-0.5,0.69,9.83
137664,-0.51,0.71,9.8
137697,-0.51,0.71,9.83
137735,-0.51,0.7,9.77
137771,-0.52,0.71,9.82
137805,-0.52,0.69,9.83
137843,-0.53,0.7,9.79
137878,-0.51,0.71,9.81
137914,-0.51,0.7,9.79
137948,-0.48,0.72,9.8
137986,-0.5,0.7,9.82
138021,-0.52,0.69,9.82
138056,-0.51,0.7,9.84
138094,-0.52,0.72,9.79
138129,-0.51,0.7,9.82
138164,-0.52,0.71,9.87
138198,-0.48,0.68,9.83
138271,-0.51,0.69,9.81
138306,-0.5,0.69,9.83
138341,-0.52,0.72,9.84
138376,-0.53,0.71,9.83
138414,-0.56,0.68,9.99
138447,-0.49,0.68,9.77
138483,-0.52,0.7,9.84
138521,-0.51,0.72,9.82
138556,-0.49,0.66,9.78
138591,-0.53,0.72,9.82
138626,-0.53,0.71,9.8
138663,-0.51,0.67,9.84
138697,-0.49,0.68,9.76
138732,-0.52,0.74,9.85
138770,-0.5,0.69,9.82
138805,-0.51,0.69,9.83
138840,-0.5,0.68,9.81
138874,-0.51,0.7,9.83
138913,-0.52,0.73,9.82
138947,-0.5,0.7,9.8
138982,-0.51,0.69,9.8
139020,-0.54,0.72,9.79
139055,-0.49,0.71,9.84
139090,-0.53,0.7,9.77
139125,-0.5,0.72,9.78
139163,-0.52,0.71,9.78
139197,-0.49,0.7,9.79
139232,-0.51,0.7,9.79
139267,-0.51,0.7,9.83
139304,-0.53,0.7,9.79
139339,-0.5,0.7,9.84
139374,-0.5,0.71,9.81
139448,-0.51,0.73,9.81
139484,-0.51,0.72,9.82
139518,-0.52,0.69,9.82
139553,-0.51,0.7,9.82
139591,-0.53,0.7,9.78
139627,-0.51,0.71,9.79
139662,-0.49,0.72,9.79
139696,-0.57,0.71,9.84
139729,-0.5,0.7,9.79
139764,-0.51,0.69,9.82
139798,-0.54,0.71,9.78
139836,-0.51,0.69,9.79
139871,-0.5,0.67,9.8
139907,-0.51,0.71,9.8
139940,-0.5,0.69,9.78
139978,-0.53,0.7,9.81
140014,-0.51,0.7,9.83
140048,-0.52,0.68,9.8
140086,-0.5,0.69,9.81
140122,-0.52,0.7,9.81
140156,-0.56,0.69,9.92
140191,-0.48,0.66,9.84
140228,-0.54,0.7,9.81
140264,-0.5,0.71,9.85
140298,-0.49,0.7,9.78
140336,-0.53,0.69,9.86
140371,-0.51,0.71,9.83
140406,-0.48,0.73,9.8
140441,-0.53,0.7,9.83
140478,-0.52,0.7,9.8
140514,-0.51,0.71,9.78
140548,-0.5,0.71,9.79
140619,-0.48,0.7,9.81
140657,-0.54,0.7,9.83
140691,-0.52,0.69,9.94
140726,-0.53,0.71,9.77
140765,-0.53,0.7,9.79
140797,-0.51,0.71,9.84
140833,-0.54,0.69,9.74
140868,-0.49,0.7,9.78
140906,-0.51,0.71,9.83
140941,-0.49,0.7,9.78
140976,-0.5,0.68,9.81
141014,-0.5,0.71,9.78
141048,-0.53,0.73,9.79
141083,-0.55,0.71,9.84
141119,-0.52,0.71,9.8
141166,-0.52,0.69,9.8
141202,-0.52,0.7,9.79
141237,-0.54,0.72,9.79
141274,-0.52,0.71,9.83
141312,-0.48,0.69,9.82
141346,-0.52,0.7,9.79
141382,-0.54,0.7,9.81
141420,-0.49,0.73,9.82
141456,-0.53,0.7,9.8
141491,-0.51,0.71,9.77
141527,-0.5,0.7,9.83
141571,-0.52,0.72,9.81
141605,-0.5,0.71,9.82
141640,-0.51,0.71,9.79
141679,-0.53,0.71,9.85
141715,-0.49,0.69,9.82
141785,-0.53,0.71,9.8
141820,-0.5,0.7,9.82
141859,-0.52,0.7,9.82
141893,-0.53,0.68,9.78
141929,-0.52,0.71,9.81
141965,-0.51,0.69,9.8
142003,-0.51,0.69,9.83
142039,-0.53,0.69,9.81
142074,-0.51,0.7,9.82
142113,-0.52,0.71,9.81
142148,-0.54,0.7,9.82
142188,-0.48,0.68,9.86
142224,-0.53,0.69,9.83
142263,-0.5,0.7,9.78
142298,-0.49,0.7,9.8
142333,-0.54,0.73,9.8
142372,-0.49,0.7,9.77
142407,-0.51,0.69,9.8
142442,-0.53,0.74,9.77
142478,-0.52,0.72,9.77
142517,-0.52,0.7,9.81
142553,-0.5,0.69,9.82
142589,-0.51,0.69,9.76
142625,-0.49,0.71,9.72
142664,-0.55,0.71,9.73
142698,-0.56,0.69,9.86
142735,-0.53,0.71,9.83
142778,-0.51,0.7,9.82
142814,-0.52,0.7,9.83
142849,-0.5,0.7,9.8
142883,-0.53,0.7,9.8
142960,-0.46,0.69,9.57
142994,-0.42,0.72,9.99
143030,-0.51,0.71,9.93
143068,-0.49,0.64,9.86
143104,-0.48,0.66,9.75
143139,-0.55,0.71,9.69
143175,-0.51,0.72,9.78
143214,-0.54,0.72,9.76
143248,-0.51,0.7,9.75
143284,-0.52,0.68,9.83
143320,-0.53,0.72,9.77
143363,-0.5,0.69,9.82
143396,-0.52,0.7,9.81
143432,-0.53,0.71,9.81
143471,-0.5,0.69,9.81
143506,-0.52,0.7,9.82
143541,-0.51,0.71,9.79
143576,-0.5,0.7,9.81
143614,-0.53,0.7,9.78
143649,-0.5,0.71,9.83
143684,-0.52,0.7,9.83
143723,-0.52,0.7,9.79
143760,-0.52,0.7,9.8
143794,-0.52,0.71,9.78
143830,-0.53,0.69,9.8
143868,-0.52,0.71,9.82
143904,-0.52,0.7,9.83
143944,-0.5,0.71,9.84
143980,-0.54,0.72,9.81
144018,-0.51,0.69,9.81
144054,-0.5,0.72,9.83
144089,-0.5,0.7,9.77
144163,-0.53,0.71,9.8
144197,-0.53,0.7,9.81
144233,-0.52,0.68,9.78
144269,-0.51,0.7,9.83
144308,-0.53,0.71,9.78
144342,-0.52,0.68,9.79
144377,-0.51,0.73,9.84
144416,-0.54,0.69,9.81
144452,-0.51,0.7,9.83
144488,-0.51,0.7,9.82
144524,-0.52,0.71,9.81
144567,-0.49,0.7,9.82
144603,-0.52,0.71,9.78
144638,-0.52,0.69,9.78
144673,-0.5,0.69,9.8
144712,-0.53,0.71,9.85
144747,-0.52,0.7,9.81
144783,-0.51,0.7,9.85
144821,-0.54,0.72,9.78
144857,-0.52,0.7,9.84
144891,-0.53,0.69,9.81
144927,-0.51,0.69,9.77
144966,-0.52,0.7,9.76
145001,-0.61,0.76,9.89
145037,-0.57,0.71,9.84
145076,-0.5,0.68,9.81
145117,-0.58,0.74,9.88
145153,-0.54,0.73,9.83
145187,-0.52,0.68,9.79
145226,-0.54,0.69,9.82
145262,-0.5,0.71,9.82
145297,-0.5,0.69,9.79
145369,-0.43,0.65,9.86
145404,-0.56,0.58,9.76
145440,-0.51,0.69,9.84
145475,-0.47,0.58,9.79
145515,-0.48,0.62,9.81
145550,-0.48,0.62,9.77
145586,-0.5,0.62,9.82
145623,-0.46,0.61,9.85
145661,-0.51,0.59,9.82
145695,-0.49,0.61,9.8
145736,-0.47,0.59,9.81
145774,-0.47,0.61,9.81
145810,-0.49,0.61,9.82
145845,-0.48,0.6,9.8
145881,-0.44,0.57,9.79
145918,-0.49,0.55,9.71
145954,-0.44,0.57,9.67
145989,-0.45,0.59,9.85
146028,-0.48,0.6,9.81
146064,-0.47,0.62,9.71
146099,-0.44,0.6,9.74
146135,-0.48,0.61,9.81
146173,-0.48,0.58,9.8
146209,-0.47,0.6,9.8
146243,-0.5,0.62,9.88
146280,-0.45,0.59,9.88
146323,-0.46,0.58,9.81
146359,-0.5,0.59,9.83
146392,-0.46,0.6,9.76
146430,-0.48,0.59,9.81
146466,-0.49,0.62,9.78
146538,-0.49,0.59,9.8
146574,-0.49,0.6,9.84
146613,-0.49,0.59,9.78
146647,-0.47,0.59,9.79
146683,-0.5,0.6,9.8
146722,-0.47,0.59,9.8
146758,-0.49,0.62,9.81
146792,-0.47,0.6,9.78
146828,-0.48,0.61,9.82
146867,-0.46,0.59,9.82
146908,-0.45,0.62,9.81
146941,-0.48,0.59,9.81
146977,-0.48,0.58,9.83
147016,-0.47,0.62,9.8
147052,-0.46,0.62,9.79
147088,-0.46,0.61,9.8
147127,-0.49,0.61,9.82
147163,-0.47,0.62,9.83
147196,-0.47,0.61,9.78
147232,-0.47,0.59,9.84
147272,-0.47,0.59,9.83
147308,-0.5,0.62,9.82
147342,-0.47,0.59,9.81
147382,-0.46,0.59,9.87
147418,-0.5,0.64,9.83
147453,-0.46,0.6,9.8
147493,-0.49,0.6,9.8
147532,-0.49,0.6,9.79
147568,-0.47,0.59,9.82
147603,-0.5,0.61,9.85
147639,-0.47,0.6,9.78
147678,-0.45,0.6,9.79
147749,-0.46,0.58,9.87
147785,-0.47,0.59,9.76
147824,-0.47,0.62,9.79
147860,-0.48,0.61,9.8
147895,-0.47,0.6,9.8
147931,-0.49,0.61,9.83
147970,-0.44,0.59,9.82
148005,-0.47,0.59,9.79
148040,-0.48,0.6,9.8
148083,-0.49,0.61,9.8
148119,-0.47,0.61,9.8
148154,-0.49,0.6,9.79
148190,-0.47,0.6,9.79
148228,-0.46,0.62,9.82
148263,-0.48,0.58,9.83
148297,-0.47,0.59,9.8
148334,-0.48,0.57,9.82
148372,-0.46,0.61,9.82
148409,-0.48,0.61,9.82
148443,-0.46,0.58,9.76
148482,-0.46,0.59,9.77
148517,-0.49,0.6,9.8
148553,-0.49,0.61,9.82
148589,-0.47,0.61,9.8
148628,-0.47,0.59,9.82
148668,-0.46,0.59,9.81
148704,-0.48,0.58,9.82
148742,-0.48,0.59,9.8
148777,-0.48,0.59,9.8
148813,-0.5,0.61,9.81
148848,-0.45,0.59,9.81
148922,-0.48,0.61,9.82
148958,-0.46,0.59,9.8
148992,-0.49,0.61,9.77
149027,-0.49,0.61,9.84
149066,-0.45,0.59,9.82
149102,-0.47,0.6,9.82
149138,-0.47,0.6,9.81
149177,-0.47,0.6,9.83
149213,-0.47,0.61,9.85
149246,-0.47,0.62,9.79
149287,-0.46,0.59,9.76
149326,-0.46,0.61,9.79
149362,-0.47,0.61,9.84
149396,-0.47,0.59,9.78
149435,-0.47,0.6,9.81
149471,-0.46,0.59,9.81
149506,-0.46,0.59,9.8
149540,-0.48,0.59,9.77
149579,-0.48,0.62,9.79
149615,-0.47,0.61,9.8
149651,-0.46,0.59,9.81
149687,-0.48,0.61,9.81
149726,-0.47,0.59,9.83
149762,-0.47,0.59,9.81
149795,-0.48,0.61,9.8
149846,-0.47,0.6,9.79
149881,-0.45,0.58,9.79
149917,-0.48,0.59,9.82
149953,-0.48,0.61,9.79
149992,-0.46,0.59,9.79
150028,-0.47,0.59,9.8
150098,-0.48,0.59,9.78
150137,-0.46,0.61,9.78
150173,-0.46,0.59,9.83
150209,-0.48,0.59,9.81
150243,-0.5,0.58,9.82
150282,-0.48,0.59,9.82
150319,-0.49,0.6,9.81
150353,-0.48,0.62,9.79
150396,-0.47,0.58,9.8
150432,-0.47,0.6,9.81
150468,-0.47,0.59,9.83
150503,-0.47,0.61,9.8
150542,-0.47,0.61,9.76
150578,-0.47,0.58,9.82
150612,-0.46,0.59,9.8
150647,-0.47,0.58,9.79
150686,-0.48,0.6,9.8
150722,-0.48,0.59,9.77
150758,-0.42,0.58,9.77
150795,-0.72,0.32,9.76
150831,-0.61,0.66,9.85
150866,-0.53,0.61,9.8
150899,-0.55,0.57,9.76
150938,-0.5,0.71,9.79
150978,-0.5,0.73,9.77
151014,-0.54,0.71,9.81
151049,-0.51,0.7,9.79
151087,-0.51,0.72,9.79
151122,-0.52,0.67,9.82
151158,-0.53,0.7,9.81
151194,-0.52,0.67,9.77
151230,-0.51,0.71,9.78
151301,-0.52,0.7,9.79
151336,-0.53,0.71,9.83
151375,-0.55,0.7,9.8
151410,-0.52,0.7,9.84
151445,-0.51,0.69,9.82
151484,-0.51,0.69,9.82
151520,-0.54,0.7,9.82
151556,-0.51,0.72,9.81
151595,-0.53,0.7,9.78
151632,-0.54,0.71,9.79
151668,-0.5,0.7,9.79
151703,-0.52,0.71,9.78
151741,-0.51,0.7,9.81
151777,-0.52,0.68,9.8
151813,-0.51,0.67,9.82
151846,-0.52,0.71,9.78
151885,-0.53,0.7,9.84
151921,-0.51,0.69,9.8
151957,-0.51,0.7,9.8
151991,-0.48,0.71,9.75
152030,-0.51,0.73,9.82
152066,-0.51,0.69,9.82
152101,-0.54,0.73,9.85
152144,-0.53,0.71,9.79
152180,-0.53,0.7,9.8
152216,-0.54,0.72,9.81
152252,-0.51,0.69,9.73
152290,-0.52,0.7,9.75
152326,-0.54,0.71,9.84
152361,-0.54,0.72,9.84
152399,-0.52,0.69,9.76
152470,-0.51,0.72,9.68
152506,-0.47,0.72,9.68
152541,-0.52,0.71,9.76
152580,-0.57,0.7,9.86
152615,-0.53,0.66,9.74
152651,-0.54,0.73,9.81
152687,-0.51,0.7,9.79
152726,-0.52,0.7,9.8
152767,-0.55,0.71,9.8
152802,-0.52,0.72,9.79
152841,-0.52,0.68,9.84
152877,-0.52,0.7,9.79
152912,-0.54,0.71,9.83
152947,-0.5,0.71,9.82
152986,-0.53,0.7,9.84
153022,-0.53,0.7,9.8
153058,-0.55,0.73,9.82
153095,-0.52,0.7,9.77
153131,-0.51,0.69,9.78
153166,-0.52,0.69,9.8
153203,-0.53,0.71,9.84
153241,-0.55,0.7,9.81
153278,-0.49,0.69,9.79
153314,-0.51,0.71,9.81
153353,-0.52,0.71,9.8
153391,-0.5,0.7,9.81
153426,-0.53,0.71,9.82
153462,-0.51,0.7,9.84
153499,-0.52,0.7,9.81
153535,-0.53,0.7,9.81
153571,-0.52,0.71,9.82
153607,-0.53,0.69,9.8
153680,-0.51,0.67,9.79
153716,-0.53,0.72,9.82
153752,-0.52,0.7,9.8
153791,-0.5,0.71,9.78
153827,-0.54,0.7,9.8
153863,-0.54,0.69,9.82
153899,-0.54,0.69,9.81
153942,-0.53,0.72,9.79
153977,-0.52,0.7,9.79
154013,-0.53,0.7,9.81
154048,-0.54,0.7,9.82
154086,-0.53,0.7,9.84
154122,-0.5,0.71,9.8
154158,-0.5,0.7,9.8
154194,-0.55,0.69,9.85
154230,-0.52,0.71,9.82
154266,-0.51,0.68,9.79
154303,-0.52,0.7,9.76
154341,-0.56,0.73,9.8
154378,-0.55,0.68,9.82
154413,-0.53,0.7,9.8
154451,-0.52,0.69,9.79
154487,-0.5,0.71,9.77
154527,-0.56,0.7,9.83
154562,-0.51,0.7,9.82
154600,-0.52,0.68,9.8
154635,-0.53,0.7,9.8
154671,-0.51,0.71,9.8
154706,-0.51,0.71,9.8
154743,-0.53,0.72,9.79
154779,-0.52,0.72,9.8
154815,-0.53,0.7,9.82
154892,-0.53,0.71,9.8
154929,-0.54,0.7,9.83
154964,-0.51,0.7,9.79
154999,-0.54,0.69,9.79
155038,-0.52,0.7,9.8
155074,-0.53,0.71,9.83
155110,-0.53,0.71,9.81
155152,-0.51,0.73,9.82
155187,-0.51,0.72,9.78
155223,-0.52,0.7,9.82
155258,-0.51,0.68,9.8
155295,-0.52,0.71,9.79
155331,-0.53,0.71,9.83
155367,-0.52,0.68,9.84
155403,-0.53,0.68,9.82
155441,-0.54,0.71,9.78
155476,-0.53,0.72,9.79
155512,-0.51,0.68,9.78
155550,-0.53,0.7,9.81
155587,-0.52,0.7,9.81
155623,-0.52,0.71,9.81
155659,-0.51,0.71,9.81
155700,-0.54,0.69,9.79
155736,-0.52,0.69,9.82
155770,-0.54,0.7,9.81
155809,-0.55,0.69,9.81
155844,-0.51,0.69,9.82
155879,-0.55,0.72,9.82
155915,-0.54,0.71,9.8
155954,-0.52,0.69,9.83
155988,-0.51,0.73,9.78
156024,-0.53,0.72,9.82
156060,-0.51,0.7,9.81
156097,-0.52,0.71,9.79
156133,-0.51,0.71,9.78
156169,-0.52,0.72,9.84
156208,-0.55,0.7,9.8
156242,-0.56,0.71,9.78
156282,-0.53,0.7,9.81
156318,-0.54,0.69,9.84
156356,-0.54,0.69,9.8
156390,-0.53,0.71,9.77
156426,-0.53,0.71,9.81
156465,-0.54,0.72,9.84
156500,-0.52,0.7,9.81
156536,-0.52,0.7,9.84
156572,-0.52,0.67,9.82
156611,-0.54,0.72,9.8
156646,-0.53,0.67,9.81
156681,-0.54,0.7,9.79
156718,-0.54,0.69,9.79
156756,-0.51,0.71,9.81
156790,-0.53,0.7,9.79
156826,-0.52,0.71,9.81
156869,-0.55,0.71,9.8
156905,-0.52,0.7,9.81
156940,-0.53,0.71,9.88
156975,-0.54,0.7,9.79
157014,-0.53,0.69,9.78
157049,-0.53,0.68,9.8
157085,-0.51,0.74,9.82
157124,-0.51,0.69,9.81
157160,-0.52,0.71,9.8
157194,-0.54,0.71,9.78
157230,-0.51,0.7,9.81
157268,-0.52,0.7,9.85
157304,-0.56,0.69,9.82
157339,-0.51,0.72,9.82
157375,-0.48,0.7,9.79
157418,-0.54,0.71,9.81
157454,-0.56,0.7,9.81
157488,-0.51,0.67,9.86
157527,-0.52,0.7,9.76
157562,-0.53,0.75,9.84
157596,-0.51,0.71,9.81
157632,-0.49,0.7,9.81
157671,-0.55,0.71,9.98
157707,-0.49,0.63,9.93
157741,-0.48,0.7,9.71
157780,-0.55,0.76,9.77
157816,-0.53,0.69,9.84
157852,-0.49,0.67,9.81
157888,-0.55,0.71,9.83
157926,-0.51,0.69,9.84
157962,-0.52,0.69,9.82
158001,-0.54,0.71,9.83
158036,-0.51,0.67,9.82
158075,-0.51,0.7,9.8
158111,-0.53,0.7,9.81
158145,-0.51,0.69,9.78
158184,-0.56,0.7,9.83
158220,-0.52,0.71,9.8
158256,-0.53,0.71,9.8
158289,-0.52,0.69,9.78
158328,-0.56,0.72,9.81
158364,-0.52,0.69,9.81
158400,-0.54,0.71,9.82
158448,-0.52,0.7,9.82
158484,-0.5,0.71,9.77
158525,-0.54,0.7,9.8
158561,-0.53,0.73,9.8
158598,-0.54,0.69,9.81
158633,-0.53,0.7,9.83
158669,-0.54,0.7,9.83
158705,-0.54,0.7,9.77
158743,-0.52,0.68,9.79
158779,-0.52,0.68,9.81
158815,-0.51,0.7,9.81
158854,-0.52,0.71,9.82
158888,-0.53,0.7,9.8
158924,-0.53,0.68,9.82
158960,-0.48,0.7,9.7
158998,-0.53,0.72,9.79
159034,-0.56,0.71,9.83
159070,-0.5,0.67,9.81
159114,-0.54,0.72,9.81
159149,-0.54,0.71,9.8
159184,-0.52,0.7,9.81
159220,-0.52,0.72,9.77
159259,-0.52,0.72,9.83
159293,-0.52,0.7,9.78
159329,-0.54,0.72,9.79
159365,-0.55,0.7,9.81
159404,-0.52,0.69,9.81
159438,-0.51,0.71,9.79
159474,-0.53,0.69,9.8
159513,-0.56,0.71,9.81
159549,-0.53,0.7,9.8
159585,-0.54,0.7,9.83
159621,-0.56,0.73,9.86
159664,-0.51,0.7,9.82
159699,-0.53,0.69,9.79
159735,-0.53,0.69,9.82
159774,-0.53,0.7,9.82
159810,-0.52,0.7,9.8
159845,-0.52,0.71,9.8
159881,-0.52,0.69,9.77
159920,-0.54,0.75,9.79
159955,-0.62,0.42,9.68
159989,-0.48,0.77,9.82
160025,-0.45,0.61,9.78
160063,-0.5,0.61,9.79
160098,-0.5,0.63,9.83
160134,-0.47,0.62,9.81
160174,-0.5,0.6,9.82
160209,-0.46,0.62,9.8
160248,-0.48,0.58,9.72
160283,-0.46,0.61,9.85
160322,-0.48,0.62,9.8
160358,-0.47,0.61,9.76
160392,-0.48,0.6,9.78
160431,-0.5,0.62,9.82
160466,-0.5,0.64,10.19
160501,-0.45,0.63,9.87
160537,-0.55,0.6,9.88
160576,-0.44,0.62,9.86
160611,-0.47,0.61,9.88
160646,-0.5,0.63,9.83
160681,-0.48,0.6,9.91
160715,-0.44,0.58,9.75
160750,-0.49,0.62,9.83
160786,-0.47,0.59,9.77
160829,-0.48,0.62,9.83
160865,-0.51,0.62,9.77
160900,-0.47,0.59,9.76
160935,-0.47,0.63,9.78
160973,-0.51,0.59,9.83
161010,-0.5,0.59,9.83
161044,-0.46,0.6,9.81
161083,-0.48,0.63,9.8
161119,-0.46,0.59,9.83
161155,-0.5,0.56,9.86
161189,-0.49,0.61,9.77
161228,-0.51,0.6,9.82
161263,-0.46,0.6,9.82
161298,-0.46,0.61,9.76
161337,-0.5,0.59,9.79
161373,-0.45,0.6,9.82
161413,-0.5,0.61,9.82
161447,-0.48,0.59,9.83
161485,-0.44,0.62,9.71
161521,-0.5,0.61,9.43
161557,-0.49,0.62,9.85
161591,-0.48,0.6,9.77
161630,-0.5,0.6,9.85
161666,-0.51,0.61,9.79
161701,-0.45,0.57,9.82
161740,-0.48,0.61,9.81
161775,-0.47,0.61,9.82
161811,-0.45,0.59,9.81
161845,-0.47,0.6,9.83
161884,-0.5,0.59,9.82
161921,-0.5,0.59,9.77
161956,-0.48,0.61,9.79
161997,-0.48,0.6,9.8
162033,-0.5,0.61,9.82
162069,-0.49,0.6,9.82
162105,-0.49,0.59,9.79
162142,-0.45,0.61,9.78
162178,-0.48,0.61,9.8
162212,-0.49,0.6,9.8
162248,-0.5,0.58,9.83
162286,-0.47,0.61,9.78
162322,-0.5,0.58,9.84
162358,-0.47,0.61,9.8
162396,-0.48,0.59,9.8
162432,-0.48,0.6,9.83
162467,-0.49,0.6,9.83
162503,-0.47,0.58,9.82
162545,-0.49,0.61,9.8
162580,-0.49,0.6,9.81
162616,-0.49,0.61,9.82
162655,-0.49,0.59,9.79
162690,-0.46,0.59,9.79
162724,-0.48,0.59,9.8
162760,-0.49,0.6,9.81
162798,-0.49,0.61,9.8
162834,-0.48,0.59,9.77
162870,-0.49,0.6,9.83
162906,-0.48,0.61,9.78
162942,-0.47,0.59,9.78
162978,-0.46,0.6,9.82
163014,-0.48,0.59,9.82
163053,-0.47,0.59,9.78
163088,-0.49,0.59,9.82
163128,-0.46,0.59,9.83
163163,-0.47,0.58,9.8
163201,-0.47,0.6,9.8
163236,-0.46,0.6,9.77
163271,-0.47,0.59,9.78
163310,-0.48,0.61,9.82
163345,-0.48,0.61,9.81
163380,-0.51,0.59,9.82
163417,-0.48,0.61,9.82
163454,-0.47,0.57,9.81
163489,-0.46,0.6,9.79
163525,-0.49,0.61,9.8
163560,-0.46,0.6,9.82
163598,-0.48,0.6,9.81
163634,-0.48,0.59,9.81
163670,-0.48,0.6,9.81
163713,-0.47,0.59,9.81
163748,-0.48,0.61,9.82
163784,-0.48,0.59,9.81
163820,-0.46,0.59,9.81
163859,-0.47,0.6,9.81
163893,-0.47,0.59,9.79
163929,-0.47,0.58,9.8
163968,-0.48,0.59,9.82
164003,-0.46,0.59,9.8
164037,-0.48,0.6,9.8
164073,-0.45,0.59,9.81
164112,-0.48,0.58,9.81
164147,-0.48,0.59,9.82
164183,-0.46,0.61,9.81
164219,-0.48,0.6,9.83
164262,-0.49,0.62,9.81
164296,-0.49,0.57,9.8
164332,-0.47,0.6,9.8
164371,-0.46,0.58,9.87
164407,-0.47,0.59,9.85
164441,-0.46,0.58,9.78
164476,-0.48,0.59,9.82
164514,-0.48,0.59,9.84
164550,-0.47,0.58,9.83
164586,-0.5,0.59,9.82
164625,-0.48,0.59,9.8
164661,-0.48,0.61,9.83
164695,-0.47,0.6,9.79
164730,-0.46,0.58,9.82
164770,-0.48,0.59,9.82
164806,-0.46,0.6,9.82
164844,-0.47,0.61,9.76
164880,-0.48,0.6,9.83
164918,-0.48,0.59,9.81
164954,-0.47,0.58,9.81
164988,-0.49,0.61,9.8
165026,-0.48,0.57,9.81
165062,-0.49,0.6,9.79
165097,-0.49,0.59,9.8
165133,-0.47,0.6,9.77
165172,-0.48,0.59,9.82
165207,-0.48,0.6,9.78
165241,-0.46,0.59,9.79
165386,-0.51,0.61,9.79
165422,-0.46,0.6,9.81
165457,-0.47,0.61,9.84
165491,-0.51,0.6,9.81
165534,-0.48,0.6,9.79
165570,-0.47,0.57,9.85
165605,-0.51,0.6,9.79
165640,-0.45,0.62,9.82
165678,-0.46,0.6,9.81
165713,-0.5,0.58,9.83
165749,-0.47,0.62,9.82
165788,-0.5,0.6,9.8
165824,-0.51,0.63,9.83
165860,-0.44,0.6,9.8
165894,-0.48,0.58,9.84
165933,-0.5,0.56,9.9
165968,-0.46,0.58,9.83
166004,-0.5,0.59,9.8
166042,-0.48,0.58,9.77
166082,-0.47,0.59,9.78
166117,-0.5,0.6,9.86
166153,-0.49,0.59,9.78
166190,-0.48,0.6,9.77
166225,-0.46,0.6,9.77
166261,-0.47,0.6,9.83
166295,-0.5,0.61,9.79
166334,-0.49,0.6,9.82
166370,-0.47,0.58,9.82
166406,-0.51,0.59,9.83
166443,-0.45,0.58,9.78
166478,-0.47,0.61,9.82
166513,-0.5,0.6,9.83
166550,-0.48,0.61,9.84
166589,-0.45,0.58,9.77
166625,-0.48,0.61,9.83
166665,-0.49,0.59,9.73
166703,-0.46,0.59,9.8
166737,-0.49,0.6,9.78
166772,-0.48,0.59,9.82
166808,-0.5,0.63,9.82
166845,-0.46,0.58,9.77
166881,-0.52,0.52,9.84
166917,-0.32,0.54,9.78
166963,-0.51,0.66,9.77
166996,-0.59,0.52,9.74
167032,-0.52,0.69,9.77
167067,-0.5,0.71,9.81
167106,-0.55,0.7,9.81
167140,-0.54,0.71,9.77
167181,-0.49,0.67,9.82
167217,-0.51,0.68,9.83
167255,-0.54,0.68,9.85
167288,-0.5,0.71,9.79
167324,-0.54,0.71,9.82
167363,-0.56,0.7,9.81
167397,-0.52,0.72,9.77
167433,-0.54,0.68,9.82
167468,-0.54,0.7,9.81
167506,-0.52,0.72,9.79
167540,-0.52,0.68,9.82
167577,-0.51,0.69,9.77
167616,-0.51,0.71,9.84
167651,-0.51,0.66,9.74
167687,-0.56,0.71,9.77
167723,-0.55,0.74,9.81
167764,-0.53,0.72,9.82
167800,-0.53,0.71,9.81
167835,-0.5,0.7,9.84
167870,-0.54,0.71,9.78
167909,-0.52,0.7,9.81
167944,-0.52,0.66,9.96
167980,-0.52,0.66,9.84
168018,-0.57,0.71,9.81
168053,-0.51,0.71,9.75
168088,-0.52,0.74,9.76
168124,-0.55,0.77,9.7
168163,-0.54,0.7,9.77
168198,-0.5,0.71,9.8
168233,-0.55,0.7,9.89
168272,-0.51,0.7,9.83
168313,-0.52,0.69,9.86
168349,-0.52,0.71,9.86
168385,-0.51,0.69,9.81
168423,-0.51,0.69,9.82
168459,-0.51,0.73,9.81
168493,-0.51,0.7,9.82
168528,-0.49,0.69,9.82
168567,-0.49,0.7,9.82
168602,-0.51,0.71,9.82
168637,-0.49,0.69,9.78
168676,-0.56,0.73,9.82
168712,-0.56,0.71,9.76
168747,-0.49,0.69,9.58
168782,-0.49,0.76,9.91
168820,-0.55,0.72,9.88
168857,-0.5,0.7,9.84
168895,-0.51,0.7,9.82
168934,-0.52,0.68,9.84
168970,-0.56,0.65,9.78
169005,-0.51,0.69,9.77
169039,-0.54,0.73,9.79
169077,-0.51,0.7,9.77
169113,-0.51,0.71,9.84
169148,-0.53,0.72,9.81
169184,-0.52,0.67,9.81
169223,-0.51,0.68,9.77
169257,-0.53,0.7,9.79
169292,-0.52,0.7,9.85
169331,-0.48,0.69,9.81
169367,-0.54,0.7,9.8
169403,-0.52,0.69,9.8
169438,-0.51,0.68,9.78
169480,-0.55,0.75,9.81
169517,-0.46,0.67,9.79
169551,-0.53,0.72,9.76
169589,-0.55,0.74,9.79
169626,-0.48,0.69,9.79
169661,-0.53,0.71,9.84
169695,-0.52,0.7,9.79
169734,-0.5,0.68,9.8
169769,-0.55,0.72,9.84
169804,-0.54,0.7,9.77
169839,-0.46,0.67,9.78
169878,-0.52,0.67,9.81
169914,-0.53,0.74,9.78
169950,-0.51,0.72,9.83
169989,-0.53,0.69,9.73
170029,-0.4,0.72,9.87
170064,-0.5,0.68,9.77
170099,-0.58,0.68,9.85
170138,-0.52,0.69,9.8
170174,-0.53,0.73,9.71
170210,-0.48,0.75,9.75
170247,-0.5,0.71,9.77
170283,-0.51,0.72,9.88
170318,-0.53,0.7,9.84
170354,-0.55,0.69,9.8
170391,-0.5,0.69,9.77
170427,-0.56,0.71,9.81
170463,-0.52,0.71,9.72
170498,-0.5,0.71,9.8
170536,-0.54,0.72,9.79
170572,-0.51,0.7,9.87
170612,-0.5,0.68,9.81
170650,-0.54,0.7,9.82
170686,-0.52,0.68,9.84
170721,-0.49,0.64,9.82
170757,-0.53,0.75,9.85
170793,-0.52,0.72,9.82
170829,-0.51,0.71,9.75
170865,-0.55,0.71,9.8
170901,-0.54,0.71,9.84
170940,-0.46,0.69,9.82
170976,-0.51,0.66,9.84
171012,-0.57,0.75,9.84
171049,-0.48,0.69,9.78
171085,-0.53,0.73,9.81
171121,-0.53,0.74,9.86
171159,-0.52,0.68,9.79
171197,-0.56,0.74,9.82
171233,-0.49,0.66,9.81
171269,-0.52,0.7,9.8
171307,-0.48,0.68,9.83
171340,-0.59,0.68,9.79
171376,-0.5,0.68,9.86
171412,-0.46,0.68,9.78
171450,-0.61,0.76,9.82
171486,-0.43,0.63,9.82
171521,-0.4,0.58,9.75
171556,-0.62,0.83,9.76
171594,-0.56,0.71,9.78
171630,-0.39,0.62,9.78
171666,-0.55,0.75,9.94
171705,-0.53,0.7,9.85
171744,-0.51,0.68,9.76
171780,-0.51,0.67,9.78
171814,-0.53,0.73,9.75
171852,-0.57,0.76,9.81
171887,-0.43,0.63,9.76
171923,-0.55,0.7,9.83
171962,-0.6,0.75,9.85
171997,-0.44,0.66,9.77
172032,-0.49,0.73,9.79
172067,-0.53,0.73,9.82
172106,-0.47,0.63,9.81
172140,-0.5,0.67,9.79
172176,-0.53,0.76,9.82
172212,-0.53,0.68,9.76
172250,-0.46,0.72,9.78
172285,-0.51,0.69,9.79
172325,-0.49,0.72,9.81
172364,-0.55,0.71,9.83
172399,-0.53,0.7,9.8
172435,-0.51,0.68,9.81
172470,-0.52,0.7,9.79
172509,-0.52,0.68,9.8
172544,-0.5,0.7,9.79
172579,-0.52,0.69,9.79
172618,-0.51,0.7,9.81
172654,-0.52,0.77,9.84
172688,-0.53,0.65,9.77
172724,-0.45,0.67,9.78
172763,-0.54,0.63,9.78
172798,-0.46,0.72,9.91
172834,-0.57,0.71,9.78
172870,-0.5,0.68,9.8
172913,-0.52,0.72,9.86
172949,-0.54,0.74,9.8
172985,-0.54,0.72,9.8
173024,-0.54,0.74,9.86
173060,-0.55,0.69,9.85
173093,-0.52,0.63,9.8
173129,-0.51,0.7,9.8
173169,-0.53,0.71,9.84
173204,-0.5,0.7,9.91
173239,-0.54,0.69,9.84
173279,-0.55,0.69,9.76
173315,-0.48,0.72,9.83
173350,-0.59,0.74,9.83
173386,-0.44,0.69,9.85
173425,-0.56,0.66,9.93
173465,-0.55,0.7,9.92
173500,-0.46,0.68,9.74
173539,-0.54,0.69,9.77
173575,-0.5,0.7,9.75
173611,-0.48,0.68,9.79
173645,-0.5,0.7,9.77
173684,-0.53,0.7,9.86
173720,-0.49,0.7,9.82
173756,-0.52,0.69,9.82
173790,-0.49,0.69,9.78
173829,-0.5,0.71,9.82
173864,-0.52,0.71,9.81
173900,-0.51,0.71,9.74
173939,-0.52,0.69,9.79
173975,-0.47,0.69,9.81
174011,-0.52,0.7,9.8
174062,-0.49,0.69,9.81
174100,-0.53,0.72,9.77
174136,-0.49,0.7,9.68
174172,-0.5,0.68,9.59
174210,-0.53,0.76,9.76
174244,-0.53,0.71,9.78
174279,-0.5,0.69,9.8
174316,-0.49,0.71,9.87
174354,-0.51,0.69,9.79
174389,-0.52,0.76,9.8
174424,-0.5,0.7,9.77
174459,-0.51,0.7,9.8
174497,-0.52,0.71,9.78
174533,-0.49,0.69,9.85
174569,-0.51,0.7,9.82
174613,-0.49,0.68,9.81
174649,-0.52,0.7,9.83
174684,-0.49,0.69,9.81
174720,-0.5,0.69,9.83
174758,-0.54,0.69,9.8
174792,-0.46,0.69,9.8
174828,-0.52,0.7,9.83
174867,-0.5,0.7,9.83
174903,-0.49,0.7,9.79
174938,-0.48,0.71,9.79
174972,-0.52,0.7,9.82
175012,-0.48,0.7,9.75
175047,-0.52,0.7,9.76
175083,-0.48,0.75,9.8
175119,-0.54,0.71,9.79
175158,-0.49,0.7,9.82
175197,-0.5,0.71,9.83
175232,-0.51,0.72,9.8
175270,-0.5,0.69,9.83
175306,-0.49,0.71,9.79
175340,-0.52,0.72,9.75
175376,-0.51,0.73,9.78
175423,-0.49,0.7,9.83
175459,-0.49,0.69,9.81
175494,-0.48,0.73,9.8
175533,-0.52,0.7,9.84
175568,-0.48,0.72,9.84
175604,-0.5,0.73,9.83
175639,-0.49,0.7,9.77
175678,-0.51,0.7,9.79
175718,-0.49,0.7,9.79
175753,-0.49,0.71,9.78
175788,-0.5,0.7,9.77
175826,-0.5,0.7,9.84
175861,-0.52,0.71,9.82
175896,-0.48,0.65,9.81
175935,-0.48,0.77,9.86
175970,-0.63,0.67,9.82
176004,-0.5,0.62,9.75
176038,-0.48,0.73,9.81
176077,-0.51,0.7,9.86
176112,-0.49,0.71,9.82
176148,-0.56,0.91,9.9
176187,0.1,0.62,9.45
176223,-0.46,0.93,9.93
176258,-0.56,0.79,9.86
176295,-0.54,0.7,9.81
176334,-0.54,0.73,9.82
176369,-0.51,0.67,9.79
176405,-0.51,0.69,9.81
176439,-0.53,0.77,9.79
176478,-0.51,0.67,9.81
176514,-0.51,0.71,9.82
176549,-0.53,0.7,9.8
176588,-0.54,0.71,9.8
176624,-0.52,0.79,9.83
176660,-0.52,0.74,9.81
176693,-0.54,0.62,9.77
176733,-0.57,0.68,9.81
176769,-0.46,0.71,9.8
176802,-0.56,0.7,9.81
176844,-0.53,0.73,9.8
176880,-0.49,0.71,9.81
176916,-0.5,0.69,9.79
176952,-0.62,1.02,9.95
176990,-0.47,0.73,9.79
177026,-0.61,0.71,9.84
177060,-0.65,0.88,9.95
177095,-0.54,0.67,9.79
177134,-0.49,0.79,9.8
177170,-0.48,0.77,9.84
177203,-0.53,0.65,9.82
177241,-0.56,0.69,9.78
177276,-0.45,0.8,9.77
177312,-0.44,0.37,9.53
177346,-0.56,0.59,9.73
177385,-0.55,0.65,9.77
177425,-0.52,0.99,9.98
177461,-0.56,0.7,9.9
177498,-0.51,0.99,10.08
177532,-0.44,0.8,9.9
177569,-0.47,0.67,9.85
177605,-0.58,0.66,9.87
177642,-0.58,0.6,9.69
177677,-0.56,0.74,9.84
177713,-0.56,0.61,9.69
177746,-0.59,0.63,9.71
177785,-0.62,0.66,9.81
177821,-0.62,0.65,9.81
177857,-0.59,0.67,9.84
177894,-0.58,0.74,9.82
177930,-0.58,0.68,9.84
177966,-0.58,0.71,9.84
178006,-0.59,0.7,9.79
178042,-0.58,0.69,9.8
178078,-0.58,0.71,9.8
178114,-0.57,0.68,9.72
178153,-0.6,0.58,9.77
178188,-0.56,0.72,9.79
178224,-0.52,0.74,9.85
178258,-0.56,0.94,9.88
178295,-0.65,0.7,9.79
178331,-0.56,0.53,9.76
178366,-0.51,0.81,9.83
178400,-0.65,0.76,9.87
178439,-0.52,0.82,9.8
178475,-0.49,0.03,9.54
178510,-0.7,0.22,9.68
178551,-0.57,0.74,9.78
178586,-0.49,0.72,9.77
178622,-0.54,0.75,9.84
178657,-0.51,0.75,9.85
178695,-0.53,0.72,9.78
178731,-0.54,0.68,9.79
178766,-0.54,0.7,9.77
178800,-0.57,0.77,9.82
178833,-0.59,0.73,9.8
178869,-0.53,0.73,9.79
178906,-0.53,0.71,9.8
178942,-0.56,0.74,9.8
178978,-0.52,0.68,9.81
179014,-0.61,0.47,9.72
179048,-0.58,0.76,9.82
179087,-0.51,0.79,9.85
179123,-0.58,0.74,9.85
179161,-0.59,0.64,9.77
179197,-0.62,0.62,9.76
179232,-0.53,0.64,9.78
179268,-0.55,0.66,9.81
179302,-0.7,0.61,9.82
179340,-0.58,0.6,9.7
179376,-0.11,2.33,9.99
179411,-0.71,0.83,10.65
179447,-0.1,1.35,9.69
179483,0.01,0.87,8.82
179519,-0.14,0.51,8.89
179553,-0.86,-0.66,10.08
179592,-0.63,0.85,11.23
179628,-0.46,0.73,11.14
179663,-0.02,-1.06,10.88
179697,0.28,0.48,11.25
179740,0.81,-0.34,10.4
179776,2.12,0.18,10.6
179812,2.14,1.25,9.53
179849,2.35,-2.05,10.42
179885,3.63,-1.1,9.59
179920,3.78,-0.1,6.69
179957,6.96,-0.41,6.27
179991,6.35,-1.25,5.21
180027,6.67,-0.42,2.74
180063,7.89,-1.1,3.45
180100,8.13,-0.9,2.79
180135,7.98,-0.68,2.23
180172,8.94,-0.76,1.95
180210,9.21,-0.58,2.55
180244,8.59,-0.03,2.69
180285,9.02,0.08,2.82
180320,9.15,-0.11,3.19
180358,9.28,0.17,3.86
180390,8.54,0.15,4.25
180427,9.24,0.34,3.54
180465,8.72,0.02,2.63
180499,9.49,0.3,2.87
180535,9.19,0.27,2.77
180571,8.53,-0.13,2.92
180608,9.02,-0.06,3.36
180641,9.44,0.13,2.37
180677,8.99,0.37,2.77
180716,9.03,0.33,3.11
180750,9.0,0.14,2.81
180786,8.97,0.1,2.62
180822,8.93,0.21,2.34
180864,9.25,-0.08,1.76
180896,9.16,-0.01,2.14
180932,9.38,-0.07,2.35
180971,9.15,0.1,2.65
181005,9.17,0.38,3.19
181039,8.84,0.51,3.32
181074,8.8,0.49,3.07
181111,9.2,0.43,3.4
181145,8.68,0.2,3.29
181181,8.94,0.07,2.69
181221,8.74,0.26,2.84
181255,9.08,0.27,3.16
181288,9.18,0.4,3.12
181324,9.07,0.51,2.98
181361,9.2,0.45,2.81
181400,9.09,0.51,3.05
181435,9.19,0.95,2.68
181474,9.63,1.11,2.54
181509,10.31,1.06,2.51
181542,10.42,1.14,2.42
181578,10.12,1.58,2.07
181617,9.26,1.61,2.4
181651,9.49,2.4,2.85
181686,8.43,0.28,0.44
181725,7.72,1.79,2.81
181761,8.8,2.62,1.42
181794,8.64,0.55,1.56
181830,8.87,3.0,4.67
181870,11.19,10.79,1.08
181904,7.59,2.68,2.44
181939,7.48,0.76,6.16
181982,10.97,2.52,-1.14
182018,8.32,1.82,0.14
182051,9.65,4.55,1.45
182086,8.72,4.72,-0.18
182125,8.36,2.07,0.95
182160,6.67,6.25,2.53
182194,9.68,-0.45,-0.07
182233,9.08,2.67,1.02
182269,9.87,3.05,-1.52
182302,9.3,2.46,-1.65
182340,8.96,1.25,-0.38
182377,10.09,3.24,0.44
182412,8.44,3.96,0.09
182446,10.36,2.96,-0.35
182486,9.93,2.13,0.15
182525,8.95,5.23,-1.8
182561,8.66,4.17,-1.5
182597,8.58,4.0,1.75
182633,9.52,3.35,0.27
182669,9.44,3.15,1.97
182703,8.89,3.16,2.19
182740,8.81,3.72,1.46
182776,9.28,4.19,4.1
182812,9.51,1.62,2.42
182849,9.21,2.22,2.36
182885,10.22,2.11,-1.4
182920,8.86,1.29,0.98
182955,7.9,3.5,2.8
182991,8.6,2.0,0.08
183027,8.99,1.63,-5.42
183063,9.6,1.95,-2.36
183104,10.47,1.12,2.54
183138,9.54,1.56,0.06
183174,8.96,1.61,-1.4
183209,10.16,1.54,0.98
183245,8.92,1.06,0.04
183281,9.68,-0.15,0.72
183318,10.31,-0.28,-1.31
183355,14.5,-2.15,-3.44
183389,11.84,-0.13,2.58
183425,7.55,2.91,-2.08
183460,8.86,-4.46,-1.09
183497,10.18,-1.3,1.63
183533,7.3,1.27,-1.62
183569,11.47,2.0,-3.81
183619,10.14,1.32,2.07
183654,10.19,-0.03,-0.63
183688,8.4,0.14,3.69
183724,8.08,1.43,0.22
183762,9.58,2.46,-1.08
183796,7.26,1.77,1.05
183832,10.02,6.38,1.55
183871,9.28,-2.63,2.22
183906,9.63,-2.49,0.84
183940,9.54,0.66,3.71
183976,9.34,4.18,3.74
184015,6.45,0.57,9.99
184049,8.09,0.69,13.66
184085,5.48,0.37,10.27
184124,5.86,-0.4,2.38
184164,7.37,-0.16,2.4
184198,12.08,1.73,1.76
184237,7.98,-3.05,2.21
184272,8.12,-0.73,1.0
184307,9.52,1.23,0.97
184341,7.56,-0.71,-1.52
184380,8.76,-1.03,-4.6
184417,8.73,1.64,0.17
184451,9.15,4.76,-0.41
184488,9.53,2.97,-4.39
184525,10.55,9.72,-2.68
184561,7.46,-3.31,0.88
184598,8.48,0.33,3.47
184634,10.07,9.92,0.98
184670,6.32,-5.15,-14.53
184705,9.11,0.48,0.75
184745,8.6,3.35,-0.91
184781,9.85,3.66,-0.01
184817,9.98,1.64,-0.03
184854,9.71,2.27,1.28
184888,9.63,1.97,0.1
184924,9.96,1.72,0.72
184960,8.71,2.81,-1.45
184996,8.96,2.25,-1.18
185032,7.47,3.92,-2.23
185069,10.79,2.77,-0.6
185106,9.91,3.2,-0.65
185140,9.14,3.0,-0.88
185176,7.59,4.36,-1.59
185211,9.65,3.26,-0.53
185248,9.2,2.32,-0.75
185289,8.97,3.42,-1.0
185325,8.06,4.42,-3.53
185363,9.37,3.75,-2.39
185397,9.55,3.18,-2.07
185433,7.85,3.25,-2.89
185472,9.54,3.06,0.89
185506,8.65,3.17,0.51
185540,8.15,2.92,-1.12
185576,9.73,2.56,0.41
185615,9.56,0.02,0.54
185649,10.62,0.32,0.68
185684,8.01,-0.83,-1.07
185723,9.82,-0.51,1.22
185759,7.73,-1.61,0.34
185793,7.11,-1.36,0.13
185830,10.12,1.67,2.38
185874,9.51,-1.41,0.5
185910,9.75,0.37,1.59
185944,8.89,-1.45,0.42
185982,9.63,-2.05,2.68
186018,9.1,1.11,1.84
186052,9.51,2.29,0.27
186087,9.73,0.0,2.19
186125,9.85,2.31,-1.1
186161,9.88,-1.44,1.13
186194,6.57,-2.98,1.12
186233,9.0,1.17,2.27
186270,5.34,-2.65,-0.17
186304,7.36,0.12,5.45
186338,11.94,2.04,3.81
186378,9.44,2.13,1.49
186418,7.23,-0.04,0.41
186451,9.27,3.42,4.97
186489,8.15,4.1,5.81
186525,7.9,1.27,8.48
186561,8.06,2.33,4.96
186594,11.8,2.41,1.61
186633,6.89,2.64,5.91
186669,7.95,-3.43,-11.8
186702,12.31,-1.15,-0.99
186740,7.9,-0.58,4.16
186777,8.94,1.46,3.3
186813,10.06,2.46,4.12
186850,8.01,-1.24,3.47
186886,8.01,-2.71,3.42
186921,9.67,2.39,3.12
186956,9.0,1.75,3.41
186997,9.45,2.2,3.51
187032,8.9,1.83,4.03
187069,8.22,1.37,4.96
187105,8.97,1.45,2.76
187139,9.17,2.67,3.54
187174,9.54,2.28,2.67
187210,8.2,1.09,4.31
187247,8.6,1.6,4.77
187283,8.5,1.1,2.02
187319,8.53,1.44,5.07
187356,10.53,1.83,1.51
187389,8.06,1.83,3.98
187425,8.37,1.9,3.91
187461,9.43,2.18,3.62
187501,9.01,1.34,1.94
187536,7.08,1.25,5.92
187572,10.52,2.09,2.51
187609,9.47,1.65,2.75
187642,6.77,0.83,3.52
187678,7.4,1.83,3.6
187714,9.27,3.4,3.92
187751,8.95,1.35,0.77
187786,10.08,1.45,1.73
187822,9.25,1.77,2.23
187858,11.76,2.18,1.47
187892,7.77,0.4,4.49
187929,8.19,3.35,5.35
187965,8.56,1.83,2.64
188002,8.96,3.87,2.68
188037,10.57,8.6,2.33
188072,8.27,1.25,3.82
188115,10.29,0.12,1.06
188149,10.0,-1.77,0.86
188184,9.66,3.4,1.29
188223,10.0,7.19,-0.29
188259,10.13,12.12,3.35
188293,6.34,-2.87,-0.63
188328,8.39,5.36,0.56
188368,11.27,8.72,-3.95
188402,5.74,4.88,-3.7
188437,12.76,6.38,2.46
188476,16.4,3.96,-3.2
188512,6.15,1.12,0.69
188546,2.19,2.48,-2.03
188581,12.03,1.64,-2.99
188621,13.23,-1.13,-0.51
188660,10.39,2.99,-2.91
188694,8.31,2.24,0.76
188733,11.41,0.86,0.26
188769,8.34,3.35,-0.66
188802,10.59,1.84,-0.28
188840,10.27,-2.28,-1.91
188876,10.44,2.9,0.77
188911,8.84,0.55,-0.29
188946,8.14,0.87,-0.74
188985,7.3,0.33,-1.23
189021,7.81,-0.06,1.43
189054,9.64,0.76,0.98
189091,10.43,-1.0,0.97
189128,9.35,0.47,2.05
189164,8.14,0.22,2.94
189199,9.57,-0.03,2.37
189242,8.55,1.79,3.11
189278,8.41,-0.2,3.35
189314,10.43,2.83,4.64
189350,8.37,3.76,4.43
189385,6.36,1.8,8.23
189422,8.36,5.0,4.48
189456,9.71,1.89,3.66
189493,7.11,-11.31,-5.69
189529,9.21,-0.78,0.17
189565,10.73,2.85,0.0
189602,8.55,4.01,2.68
189637,7.77,4.02,0.59
189673,9.1,3.66,3.38
189712,9.11,7.63,-0.86
189746,7.92,3.03,3.11
189786,9.02,-3.14,0.01
189821,5.94,-1.88,3.04
189859,8.5,-3.62,0.76
189893,11.05,2.18,-1.26
189930,10.45,2.63,0.15
189969,8.79,1.71,1.95
190002,8.03,3.07,3.34
190036,10.32,1.23,0.12
190073,9.89,2.27,-0.6
190112,4.51,3.78,1.14
190146,9.57,3.27,0.53
190182,11.56,3.58,-0.14
190221,7.53,3.96,3.21
190257,7.84,6.27,1.24
190290,9.49,3.89,0.77
190326,9.39,2.21,-0.4
190369,9.6,5.95,1.2
190404,6.81,5.69,1.97
190438,6.71,5.07,4.87
190477,13.58,-2.1,-10.88
190513,8.65,7.62,1.92
190545,7.74,5.36,-0.29
190584,7.47,4.22,3.32
190620,9.15,2.32,-1.23
190654,9.48,3.18,1.47
190688,8.6,2.37,1.89
190728,10.73,1.79,-3.94
190764,9.65,1.72,-0.38
190797,10.75,0.76,0.12
190836,11.26,4.01,0.92
190873,8.85,3.22,-0.64
190912,8.24,3.12,-1.69
190946,12.79,3.04,-4.39
190985,7.72,4.09,-4.14
191021,7.88,-1.06,0.44
191054,9.32,3.82,-3.03
191090,8.13,1.81,-2.65
191127,9.91,0.0,-2.44
191162,9.58,1.61,-3.05
191196,8.64,3.0,-0.14
191235,9.15,0.96,2.8
191270,9.07,1.39,2.41
191305,8.76,-0.04,-0.58
191342,8.09,0.63,1.49
191378,7.96,2.29,-0.71
191415,10.61,2.84,-2.64
191449,9.54,0.76,1.35
191492,8.37,3.68,-0.26
191527,8.56,3.41,4.65
191563,10.04,5.3,2.64
191609,9.47,3.7,0.03
191642,9.33,4.15,2.66
191679,9.61,2.48,-1.08
191718,8.78,2.52,4.34
191752,8.22,2.63,3.67
191787,9.13,1.09,0.43
191822,9.32,1.0,3.55
191860,10.51,2.82,-0.21
191894,9.37,-0.16,1.27
191930,8.79,1.33,2.48
191974,8.28,2.07,-1.04
192009,10.23,2.37,2.45
192043,9.23,1.57,0.79
192079,6.12,-1.05,-4.46
192118,9.61,4.95,4.82
192152,9.84,1.39,3.32
192187,9.16,3.39,3.2
192225,8.58,1.98,2.42
192261,9.81,3.53,1.76
192294,9.07,2.24,0.84
192330,9.42,2.44,0.59
192370,5.6,4.31,7.76
192404,7.64,3.06,3.54
192438,10.93,4.11,2.14
192477,10.07,3.32,1.04
192513,9.43,8.95,3.39
192550,8.15,2.86,4.48
192585,11.32,3.53,0.47
192624,9.25,3.31,2.85
192660,9.76,-0.63,-2.45
192694,10.42,3.88,2.23
192733,7.63,1.52,5.4
192769,8.74,3.96,1.62
192802,7.08,3.5,3.18
192840,9.43,5.77,2.25
192876,8.02,4.14,3.19
192911,8.74,1.83,2.16
192945,6.11,1.27,3.18
192985,10.74,2.66,0.54
193020,9.58,2.24,0.89
193055,8.1,4.99,-2.81
193096,9.77,0.93,-2.2
193131,8.87,2.39,0.07
193168,9.48,5.79,0.91
193202,9.45,6.73,-0.84
193239,5.78,6.74,11.32
193274,3.19,4.72,-0.93
193310,4.71,5.75,-10.51
193347,9.8,7.84,-12.28
193383,8.15,0.84,-6.96
193419,8.62,5.53,-6.92
193457,6.2,10.46,0.74
193490,7.52,5.92,1.91
193527,6.58,5.42,4.98
193563,3.61,5.61,-1.77
193600,5.76,4.25,-1.61
193636,8.97,6.13,0.79
193676,5.84,8.99,-1.77
193715,5.05,4.2,-2.93
193748,7.52,0.19,5.94
193783,7.2,5.56,-3.77
193819,6.45,6.54,-0.51
193856,7.26,2.95,4.74
193890,12.8,1.04,-11.65
193927,9.13,1.23,-0.4
193966,9.85,4.27,1.18
193999,9.79,2.98,1.96
194034,11.1,0.8,-4.21
194073,4.84,8.84,-10.42
194109,7.36,11.56,22.71
194143,7.29,1.55,-10.82
194180,9.9,3.96,0.81
194223,7.71,4.17,6.17
194258,6.77,5.15,6.72
194292,8.35,5.17,6.29
194332,11.26,3.85,0.81
194368,9.27,2.88,-0.29
194401,7.15,4.51,0.45
194436,5.78,6.19,2.98
194475,3.76,5.2,3.98
194510,3.81,5.27,1.68
194544,2.57,0.37,6.75
194583,3.56,3.6,5.92
194619,5.83,4.02,5.38
194653,5.78,5.09,5.41
194688,3.3,5.69,9.76
194726,3.4,7.66,13.02
194763,2.95,2.34,8.82
194801,2.41,-1.08,13.57
194839,2.53,0.77,10.86
194875,1.98,3.04,9.88
194911,3.11,0.28,9.93
194945,4.53,3.41,8.79
194983,7.9,2.96,8.82
195019,-0.88,-0.31,9.48
195053,0.86,6.9,11.45
195090,0.87,2.09,7.4
195126,0.86,3.48,6.96
195162,0.93,3.54,11.18
195195,-0.21,0.69,9.85
195234,-0.2,0.62,9.82
195270,-0.22,0.69,9.82
195304,-0.2,0.64,9.78
195345,-0.21,0.67,9.81
195381,-0.2,0.63,9.8
195417,-0.17,0.68,9.81
195451,-0.17,0.68,9.78
195489,-0.19,0.67,9.79
195524,-0.19,0.64,9.81
195560,-0.19,0.65,9.81
195595,-0.18,0.7,9.84
195634,-0.19,0.68,9.85
195670,-0.2,0.63,9.83
195704,-0.2,0.69,9.7
195741,-0.2,0.76,10.02
195777,-0.23,0.64,9.87
195814,-0.17,0.65,9.8
195850,-0.17,0.67,9.83
195888,-0.19,0.64,9.83
195928,-0.19,0.64,9.85
195963,-0.18,0.66,9.84
196002,-0.18,0.64,9.82
196036,-0.17,0.66,9.82
196072,-0.17,0.65,9.84
196107,-0.2,0.65,9.84
196145,-0.21,0.68,9.85
196179,-0.18,0.66,9.84
196215,-0.16,0.62,9.82
196250,-0.23,0.69,9.83
196288,-0.2,0.74,9.81
196324,-0.09,0.55,9.81
196360,-0.22,0.63,9.77
196398,-0.22,0.71,9.77
196433,-0.11,0.68,9.77
196468,-0.22,0.68,9.84
196509,-0.21,0.67,9.84
196546,-0.16,0.66,9.82
196581,-0.19,0.64,9.81
